,sbj_ID,Age,Sex,L1,AoAL1,ProfL1,L2,AoAL2,ProfL2,L3,AoAL3,ProfL3,L4,AoAL4,ProfL4,otherLs,set,trialn,character1,character2,response,rt
0,101,23,Female,English,0,6,French,0,5,German,13,3,Italian,22,2,No,,,,,,
0,102,31,Male,French,0,6,English,0,5,German,13,3,Italian,22,2,No,,,,,,
0,101,,,,,,,,,,,,,,,,1.0,1.0,d,O,73,3222.0
0,101,,,,,,,,,,,,,,,,1.0,2.0,v,S,29,2243.0
0,101,,,,,,,,,,,,,,,,1.0,3.0,y,D,28,2079.0
0,101,,,,,,,,,,,,,,,,1.0,4.0,Y,V,32,2456.0
0,101,,,,,,,,,,,,,,,,1.0,5.0,b,Z,10,5587.0
0,101,,,,,,,,,,,,,,,,1.0,6.0,r,N,74,2684.0
0,101,,,,,,,,,,,,,,,,1.0,7.0,a,F,21,2327.0
0,101,,,,,,,,,,,,,,,,1.0,8.0,g,J,30,2730.0
0,101,,,,,,,,,,,,,,,,1.0,9.0,u,N,65,2741.0
0,101,,,,,,,,,,,,,,,,1.0,10.0,l,R,25,2568.0
0,101,,,,,,,,,,,,,,,,1.0,11.0,l,g,36,2518.0
0,101,,,,,,,,,,,,,,,,1.0,12.0,t,T,72,2014.0
0,101,,,,,,,,,,,,,,,,1.0,13.0,o,a,28,2652.0
0,101,,,,,,,,,,,,,,,,1.0,14.0,l,J,70,4069.0
0,101,,,,,,,,,,,,,,,,1.0,15.0,r,T,72,2210.0
0,101,,,,,,,,,,,,,,,,1.0,16.0,g,l,22,1850.0
0,101,,,,,,,,,,,,,,,,1.0,17.0,o,c,21,3863.0
0,101,,,,,,,,,,,,,,,,1.0,18.0,b,Y,12,3192.0
0,101,,,,,,,,,,,,,,,,1.0,19.0,Y,J,69,2017.0
0,101,,,,,,,,,,,,,,,,1.0,20.0,V,k,32,2045.0
0,101,,,,,,,,,,,,,,,,1.0,21.0,g,B,21,1965.0
0,101,,,,,,,,,,,,,,,,1.0,22.0,g,F,15,1912.0
0,101,,,,,,,,,,,,,,,,1.0,23.0,y,r,6,2999.0
0,101,,,,,,,,,,,,,,,,1.0,24.0,k,E,32,2408.0
0,101,,,,,,,,,,,,,,,,1.0,25.0,c,d,82,3195.0
0,101,,,,,,,,,,,,,,,,1.0,26.0,d,T,0,2754.0
0,101,,,,,,,,,,,,,,,,1.0,27.0,a,O,28,2157.0
0,101,,,,,,,,,,,,,,,,1.0,28.0,t,i,34,4686.0
0,101,,,,,,,,,,,,,,,,1.0,29.0,a,N,27,2984.0
0,101,,,,,,,,,,,,,,,,1.0,30.0,t,Z,63,3446.0
0,101,,,,,,,,,,,,,,,,1.0,31.0,y,h,35,2458.0
0,101,,,,,,,,,,,,,,,,1.0,32.0,d,g,28,2502.0
0,101,,,,,,,,,,,,,,,,1.0,33.0,v,h,69,2902.0
0,101,,,,,,,,,,,,,,,,1.0,34.0,h,u,9,2645.0
0,101,,,,,,,,,,,,,,,,1.0,35.0,c,Y,71,4374.0
0,101,,,,,,,,,,,,,,,,1.0,36.0,U,o,25,3267.0
0,101,,,,,,,,,,,,,,,,1.0,37.0,t,t,100,3097.0
0,101,,,,,,,,,,,,,,,,1.0,38.0,v,k,27,3079.0
0,101,,,,,,,,,,,,,,,,1.0,39.0,Z,m,11,3067.0
0,101,,,,,,,,,,,,,,,,1.0,40.0,V,v,14,4207.0
0,101,,,,,,,,,,,,,,,,1.0,41.0,v,J,89,3017.0
0,101,,,,,,,,,,,,,,,,1.0,42.0,a,a,100,2828.0
0,101,,,,,,,,,,,,,,,,1.0,43.0,h,a,84,2515.0
0,101,,,,,,,,,,,,,,,,1.0,44.0,b,h,13,2741.0
0,101,,,,,,,,,,,,,,,,1.0,45.0,o,H,16,2777.0
0,101,,,,,,,,,,,,,,,,1.0,46.0,y,G,14,2602.0
0,101,,,,,,,,,,,,,,,,1.0,47.0,u,g,15,4041.0
0,101,,,,,,,,,,,,,,,,1.0,48.0,i,H,1,2711.0
0,101,,,,,,,,,,,,,,,,1.0,49.0,r,H,25,2918.0
0,101,,,,,,,,,,,,,,,,1.0,50.0,u,i,28,2635.0
0,101,,,,,,,,,,,,,,,,1.0,51.0,U,U,100,3077.0
0,101,,,,,,,,,,,,,,,,1.0,52.0,l,A,22,2921.0
0,101,,,,,,,,,,,,,,,,1.0,53.0,i,P,26,4525.0
0,101,,,,,,,,,,,,,,,,1.0,54.0,k,Z,28,3022.0
0,101,,,,,,,,,,,,,,,,1.0,55.0,a,A,16,3837.0
0,101,,,,,,,,,,,,,,,,1.0,56.0,c,c,100,3716.0
0,101,,,,,,,,,,,,,,,,1.0,57.0,g,h,20,3298.0
0,101,,,,,,,,,,,,,,,,1.0,58.0,m,g,15,2716.0
0,101,,,,,,,,,,,,,,,,1.0,59.0,l,S,22,3791.0
0,101,,,,,,,,,,,,,,,,1.0,60.0,h,y,20,2688.0
0,101,,,,,,,,,,,,,,,,1.0,61.0,t,U,20,2683.0
0,101,,,,,,,,,,,,,,,,1.0,62.0,k,i,77,3193.0
0,101,,,,,,,,,,,,,,,,1.0,63.0,d,E,18,3482.0
0,101,,,,,,,,,,,,,,,,1.0,64.0,U,V,25,2499.0
0,101,,,,,,,,,,,,,,,,1.0,65.0,y,d,88,2866.0
0,101,,,,,,,,,,,,,,,,1.0,66.0,b,T,18,2439.0
0,101,,,,,,,,,,,,,,,,1.0,67.0,V,L,27,2724.0
0,101,,,,,,,,,,,,,,,,1.0,68.0,Z,V,72,3136.0
0,101,,,,,,,,,,,,,,,,1.0,69.0,Z,R,67,3009.0
0,101,,,,,,,,,,,,,,,,1.0,70.0,U,I,25,3203.0
0,101,,,,,,,,,,,,,,,,1.0,71.0,k,J,22,2555.0
0,101,,,,,,,,,,,,,,,,1.0,72.0,h,F,31,4075.0
0,101,,,,,,,,,,,,,,,,1.0,73.0,a,J,25,2628.0
0,101,,,,,,,,,,,,,,,,1.0,74.0,k,Y,33,2646.0
0,101,,,,,,,,,,,,,,,,1.0,75.0,i,C,27,2731.0
0,101,,,,,,,,,,,,,,,,1.0,76.0,i,F,37,2746.0
0,101,,,,,,,,,,,,,,,,1.0,77.0,U,b,20,6156.0
0,101,,,,,,,,,,,,,,,,1.0,78.0,r,d,20,3412.0
0,101,,,,,,,,,,,,,,,,1.0,79.0,y,S,25,3224.0
0,101,,,,,,,,,,,,,,,,1.0,80.0,a,o,21,2721.0
0,101,,,,,,,,,,,,,,,,2.0,1.0,U,Q,70,3772.0
0,101,,,,,,,,,,,,,,,,2.0,2.0,u,Y,30,4173.0
0,101,,,,,,,,,,,,,,,,2.0,3.0,h,r,27,2465.0
0,101,,,,,,,,,,,,,,,,2.0,4.0,Y,d,91,2114.0
0,101,,,,,,,,,,,,,,,,2.0,5.0,l,H,25,2277.0
0,101,,,,,,,,,,,,,,,,2.0,6.0,Z,L,31,2463.0
0,101,,,,,,,,,,,,,,,,2.0,7.0,m,l,81,2824.0
0,101,,,,,,,,,,,,,,,,2.0,8.0,u,B,27,3069.0
0,101,,,,,,,,,,,,,,,,2.0,9.0,l,t,19,2418.0
0,101,,,,,,,,,,,,,,,,2.0,10.0,y,l,72,2681.0
0,101,,,,,,,,,,,,,,,,2.0,11.0,Y,Q,64,2667.0
0,101,,,,,,,,,,,,,,,,2.0,12.0,c,F,33,2530.0
0,101,,,,,,,,,,,,,,,,2.0,13.0,Y,E,21,2951.0
0,101,,,,,,,,,,,,,,,,2.0,14.0,h,O,28,2776.0
0,101,,,,,,,,,,,,,,,,2.0,15.0,g,P,35,3333.0
0,101,,,,,,,,,,,,,,,,2.0,16.0,y,N,16,3012.0
0,101,,,,,,,,,,,,,,,,2.0,17.0,h,C,27,2435.0
0,101,,,,,,,,,,,,,,,,2.0,18.0,g,O,30,2543.0
0,101,,,,,,,,,,,,,,,,2.0,19.0,i,Z,61,2702.0
0,101,,,,,,,,,,,,,,,,2.0,20.0,Z,c,37,2858.0
0,101,,,,,,,,,,,,,,,,2.0,21.0,g,k,31,3519.0
0,101,,,,,,,,,,,,,,,,2.0,22.0,U,g,71,2791.0
0,101,,,,,,,,,,,,,,,,2.0,23.0,V,S,29,2596.0
0,101,,,,,,,,,,,,,,,,2.0,24.0,c,I,67,3423.0
0,101,,,,,,,,,,,,,,,,2.0,25.0,u,b,28,2728.0
0,101,,,,,,,,,,,,,,,,2.0,26.0,c,T,36,4264.0
0,101,,,,,,,,,,,,,,,,2.0,27.0,l,D,23,2630.0
0,101,,,,,,,,,,,,,,,,2.0,28.0,Y,a,38,2941.0
0,101,,,,,,,,,,,,,,,,2.0,29.0,h,I,79,2684.0
0,101,,,,,,,,,,,,,,,,2.0,30.0,g,G,70,3148.0
0,101,,,,,,,,,,,,,,,,2.0,31.0,d,t,65,2977.0
0,101,,,,,,,,,,,,,,,,2.0,32.0,b,g,38,3662.0
0,101,,,,,,,,,,,,,,,,2.0,33.0,Y,N,91,2656.0
0,101,,,,,,,,,,,,,,,,2.0,34.0,l,d,70,2372.0
0,101,,,,,,,,,,,,,,,,2.0,35.0,m,J,18,2996.0
0,101,,,,,,,,,,,,,,,,2.0,36.0,u,v,63,2983.0
0,101,,,,,,,,,,,,,,,,2.0,37.0,k,P,37,2854.0
0,101,,,,,,,,,,,,,,,,2.0,38.0,r,P,23,2774.0
0,101,,,,,,,,,,,,,,,,2.0,39.0,a,R,35,2341.0
0,101,,,,,,,,,,,,,,,,2.0,40.0,U,J,73,3221.0
0,101,,,,,,,,,,,,,,,,2.0,41.0,Y,I,29,2372.0
0,101,,,,,,,,,,,,,,,,2.0,42.0,c,a,69,3616.0
0,101,,,,,,,,,,,,,,,,2.0,43.0,c,i,27,2357.0
0,101,,,,,,,,,,,,,,,,2.0,44.0,a,k,69,2550.0
0,101,,,,,,,,,,,,,,,,2.0,45.0,b,U,39,2316.0
0,101,,,,,,,,,,,,,,,,2.0,46.0,c,r,74,2845.0
0,101,,,,,,,,,,,,,,,,2.0,47.0,V,G,67,2378.0
0,101,,,,,,,,,,,,,,,,2.0,48.0,m,c,84,2644.0
0,101,,,,,,,,,,,,,,,,2.0,49.0,Y,T,90,2603.0
0,101,,,,,,,,,,,,,,,,2.0,50.0,v,v,100,2964.0
0,101,,,,,,,,,,,,,,,,2.0,51.0,b,c,32,2975.0
0,101,,,,,,,,,,,,,,,,2.0,52.0,l,m,37,2717.0
0,101,,,,,,,,,,,,,,,,2.0,53.0,V,o,25,3210.0
0,101,,,,,,,,,,,,,,,,2.0,54.0,b,A,16,2755.0
0,101,,,,,,,,,,,,,,,,2.0,55.0,l,b,71,2713.0
0,101,,,,,,,,,,,,,,,,2.0,56.0,c,J,36,3496.0
0,101,,,,,,,,,,,,,,,,2.0,57.0,b,a,80,2636.0
0,101,,,,,,,,,,,,,,,,2.0,58.0,Y,H,28,5588.0
0,101,,,,,,,,,,,,,,,,2.0,59.0,v,R,77,3683.0
0,101,,,,,,,,,,,,,,,,2.0,60.0,Z,k,63,4323.0
0,101,,,,,,,,,,,,,,,,2.0,61.0,U,S,75,2499.0
0,101,,,,,,,,,,,,,,,,2.0,62.0,i,r,81,3301.0
0,101,,,,,,,,,,,,,,,,2.0,63.0,u,J,75,3040.0
0,101,,,,,,,,,,,,,,,,2.0,64.0,t,o,71,3902.0
0,101,,,,,,,,,,,,,,,,2.0,65.0,u,O,33,2583.0
0,101,,,,,,,,,,,,,,,,2.0,66.0,l,k,26,2779.0
0,101,,,,,,,,,,,,,,,,2.0,67.0,c,v,34,2854.0
0,101,,,,,,,,,,,,,,,,2.0,68.0,v,Y,72,2617.0
0,101,,,,,,,,,,,,,,,,2.0,69.0,r,v,23,2590.0
0,101,,,,,,,,,,,,,,,,2.0,70.0,y,i,70,2907.0
0,101,,,,,,,,,,,,,,,,2.0,71.0,t,B,28,2278.0
0,101,,,,,,,,,,,,,,,,2.0,72.0,t,u,29,2928.0
0,101,,,,,,,,,,,,,,,,2.0,73.0,U,N,80,2851.0
0,101,,,,,,,,,,,,,,,,2.0,74.0,c,m,86,7771.0
0,101,,,,,,,,,,,,,,,,2.0,75.0,y,R,40,4979.0
0,101,,,,,,,,,,,,,,,,2.0,76.0,y,M,66,2653.0
0,101,,,,,,,,,,,,,,,,2.0,77.0,t,L,20,3761.0
0,101,,,,,,,,,,,,,,,,2.0,78.0,h,P,30,2146.0
0,101,,,,,,,,,,,,,,,,2.0,79.0,o,B,58,2988.0
0,101,,,,,,,,,,,,,,,,2.0,80.0,t,K,26,2317.0
0,101,,,,,,,,,,,,,,,,3.0,1.0,U,O,29,4681.0
0,101,,,,,,,,,,,,,,,,3.0,2.0,Y,B,63,3665.0
0,101,,,,,,,,,,,,,,,,3.0,3.0,u,k,34,2919.0
0,101,,,,,,,,,,,,,,,,3.0,4.0,g,U,66,2916.0
0,101,,,,,,,,,,,,,,,,3.0,5.0,V,u,28,3811.0
0,101,,,,,,,,,,,,,,,,3.0,6.0,r,o,32,2839.0
0,101,,,,,,,,,,,,,,,,3.0,7.0,Z,Z,100,4923.0
0,101,,,,,,,,,,,,,,,,3.0,8.0,b,o,30,2226.0
0,101,,,,,,,,,,,,,,,,3.0,9.0,t,S,31,2312.0
0,101,,,,,,,,,,,,,,,,3.0,10.0,U,l,32,3512.0
0,101,,,,,,,,,,,,,,,,3.0,11.0,a,V,21,3446.0
0,101,,,,,,,,,,,,,,,,3.0,12.0,y,m,94,2829.0
0,101,,,,,,,,,,,,,,,,3.0,13.0,o,Y,66,3074.0
0,101,,,,,,,,,,,,,,,,3.0,14.0,b,I,66,2925.0
0,101,,,,,,,,,,,,,,,,3.0,15.0,l,M,77,3524.0
0,101,,,,,,,,,,,,,,,,3.0,16.0,U,L,36,2453.0
0,101,,,,,,,,,,,,,,,,3.0,17.0,l,o,97,3113.0
0,101,,,,,,,,,,,,,,,,3.0,18.0,t,a,30,2583.0
0,101,,,,,,,,,,,,,,,,3.0,19.0,U,H,29,2749.0
0,101,,,,,,,,,,,,,,,,3.0,20.0,u,T,74,2867.0
0,101,,,,,,,,,,,,,,,,3.0,21.0,c,g,21,2867.0
0,101,,,,,,,,,,,,,,,,3.0,22.0,m,d,87,2729.0
0,101,,,,,,,,,,,,,,,,3.0,23.0,d,b,76,2670.0
0,101,,,,,,,,,,,,,,,,3.0,24.0,t,v,28,3708.0
0,101,,,,,,,,,,,,,,,,3.0,25.0,Z,I,14,2485.0
0,101,,,,,,,,,,,,,,,,3.0,26.0,b,V,68,2881.0
0,101,,,,,,,,,,,,,,,,3.0,27.0,l,I,10,2605.0
0,101,,,,,,,,,,,,,,,,3.0,28.0,r,t,72,4437.0
0,101,,,,,,,,,,,,,,,,3.0,29.0,b,i,85,3289.0
0,101,,,,,,,,,,,,,,,,3.0,30.0,v,l,30,3061.0
0,101,,,,,,,,,,,,,,,,3.0,31.0,y,F,19,2606.0
0,101,,,,,,,,,,,,,,,,3.0,32.0,V,Y,25,2941.0
0,101,,,,,,,,,,,,,,,,3.0,33.0,o,y,24,2856.0
0,101,,,,,,,,,,,,,,,,3.0,34.0,h,v,22,2762.0
0,101,,,,,,,,,,,,,,,,3.0,35.0,l,B,71,3116.0
0,101,,,,,,,,,,,,,,,,3.0,36.0,g,T,27,3510.0
0,101,,,,,,,,,,,,,,,,3.0,37.0,r,R,91,2676.0
0,101,,,,,,,,,,,,,,,,3.0,38.0,m,u,28,3504.0
0,101,,,,,,,,,,,,,,,,3.0,39.0,v,M,85,3595.0
0,101,,,,,,,,,,,,,,,,3.0,40.0,Y,Z,79,3776.0
0,101,,,,,,,,,,,,,,,,3.0,41.0,Y,r,92,2620.0
0,101,,,,,,,,,,,,,,,,3.0,42.0,V,J,28,2877.0
0,101,,,,,,,,,,,,,,,,3.0,43.0,V,y,72,3265.0
0,101,,,,,,,,,,,,,,,,3.0,44.0,k,D,74,2997.0
0,101,,,,,,,,,,,,,,,,3.0,45.0,c,Z,58,4172.0
0,101,,,,,,,,,,,,,,,,3.0,46.0,r,Z,85,3081.0
0,101,,,,,,,,,,,,,,,,3.0,47.0,y,t,31,2858.0
0,101,,,,,,,,,,,,,,,,3.0,48.0,c,M,68,3906.0
0,101,,,,,,,,,,,,,,,,3.0,49.0,o,t,79,3576.0
0,101,,,,,,,,,,,,,,,,3.0,50.0,g,A,31,3832.0
0,101,,,,,,,,,,,,,,,,3.0,51.0,V,B,82,2998.0
0,101,,,,,,,,,,,,,,,,3.0,52.0,h,H,74,4246.0
0,101,,,,,,,,,,,,,,,,3.0,53.0,v,F,34,2691.0
0,101,,,,,,,,,,,,,,,,3.0,54.0,i,K,31,2594.0
0,101,,,,,,,,,,,,,,,,3.0,55.0,u,h,29,2389.0
0,101,,,,,,,,,,,,,,,,3.0,56.0,r,G,74,2903.0
0,101,,,,,,,,,,,,,,,,3.0,57.0,a,u,29,2839.0
0,101,,,,,,,,,,,,,,,,3.0,58.0,c,R,29,2775.0
0,101,,,,,,,,,,,,,,,,3.0,59.0,b,D,27,2730.0
0,101,,,,,,,,,,,,,,,,3.0,60.0,v,o,43,4131.0
0,101,,,,,,,,,,,,,,,,3.0,61.0,a,Y,28,2665.0
0,101,,,,,,,,,,,,,,,,3.0,62.0,y,K,74,2970.0
0,101,,,,,,,,,,,,,,,,3.0,63.0,o,g,69,3518.0
0,101,,,,,,,,,,,,,,,,3.0,64.0,b,S,38,2549.0
0,101,,,,,,,,,,,,,,,,3.0,65.0,v,b,60,3172.0
0,101,,,,,,,,,,,,,,,,3.0,66.0,V,U,66,2215.0
0,101,,,,,,,,,,,,,,,,3.0,67.0,Z,U,90,2719.0
0,101,,,,,,,,,,,,,,,,3.0,68.0,b,y,77,3825.0
0,101,,,,,,,,,,,,,,,,3.0,69.0,y,U,11,3662.0
0,101,,,,,,,,,,,,,,,,3.0,70.0,h,N,20,2624.0
0,101,,,,,,,,,,,,,,,,3.0,71.0,k,I,72,3393.0
0,101,,,,,,,,,,,,,,,,3.0,72.0,c,t,74,3474.0
0,101,,,,,,,,,,,,,,,,3.0,73.0,o,T,31,2654.0
0,101,,,,,,,,,,,,,,,,3.0,74.0,y,y,100,2878.0
0,101,,,,,,,,,,,,,,,,3.0,75.0,c,u,30,2695.0
0,101,,,,,,,,,,,,,,,,3.0,76.0,g,y,29,2246.0
0,101,,,,,,,,,,,,,,,,3.0,77.0,r,D,72,3321.0
0,101,,,,,,,,,,,,,,,,3.0,78.0,m,a,86,3631.0
0,101,,,,,,,,,,,,,,,,3.0,79.0,k,l,31,2560.0
0,101,,,,,,,,,,,,,,,,3.0,80.0,l,K,23,2433.0
0,101,,,,,,,,,,,,,,,,4.0,1.0,V,C,72,3146.0
0,101,,,,,,,,,,,,,,,,4.0,2.0,V,T,66,3086.0
0,101,,,,,,,,,,,,,,,,4.0,3.0,m,C,33,3087.0
0,101,,,,,,,,,,,,,,,,4.0,4.0,i,i,100,3859.0
0,101,,,,,,,,,,,,,,,,4.0,5.0,a,G,64,2494.0
0,101,,,,,,,,,,,,,,,,4.0,6.0,g,Q,71,2088.0
0,101,,,,,,,,,,,,,,,,4.0,7.0,Y,o,65,3063.0
0,101,,,,,,,,,,,,,,,,4.0,8.0,r,u,65,2490.0
0,101,,,,,,,,,,,,,,,,4.0,9.0,o,K,42,2192.0
0,101,,,,,,,,,,,,,,,,4.0,10.0,c,U,34,2559.0
0,101,,,,,,,,,,,,,,,,4.0,11.0,Y,Y,100,3480.0
0,101,,,,,,,,,,,,,,,,4.0,12.0,Y,G,82,2350.0
0,101,,,,,,,,,,,,,,,,4.0,13.0,Y,P,69,5044.0
0,101,,,,,,,,,,,,,,,,4.0,14.0,Z,M,67,3551.0
0,101,,,,,,,,,,,,,,,,4.0,15.0,g,L,36,2619.0
0,101,,,,,,,,,,,,,,,,4.0,16.0,o,J,29,3318.0
0,101,,,,,,,,,,,,,,,,4.0,17.0,a,L,79,3089.0
0,101,,,,,,,,,,,,,,,,4.0,18.0,V,I,37,5089.0
0,101,,,,,,,,,,,,,,,,4.0,19.0,u,S,68,2415.0
0,101,,,,,,,,,,,,,,,,4.0,20.0,d,C,33,3138.0
0,101,,,,,,,,,,,,,,,,4.0,21.0,V,M,85,2666.0
0,101,,,,,,,,,,,,,,,,4.0,22.0,b,k,66,3216.0
0,101,,,,,,,,,,,,,,,,4.0,23.0,l,U,75,3012.0
0,101,,,,,,,,,,,,,,,,4.0,24.0,o,r,68,2340.0
0,101,,,,,,,,,,,,,,,,4.0,25.0,a,c,75,2392.0
0,101,,,,,,,,,,,,,,,,4.0,26.0,h,S,36,4304.0
0,101,,,,,,,,,,,,,,,,4.0,27.0,y,Q,24,3329.0
0,101,,,,,,,,,,,,,,,,4.0,28.0,V,N,73,4155.0
0,101,,,,,,,,,,,,,,,,4.0,29.0,i,o,32,2617.0
0,101,,,,,,,,,,,,,,,,4.0,30.0,Y,c,76,2311.0
0,101,,,,,,,,,,,,,,,,4.0,31.0,c,o,35,2846.0
0,101,,,,,,,,,,,,,,,,4.0,32.0,b,M,87,2625.0
0,101,,,,,,,,,,,,,,,,4.0,33.0,y,Y,67,3662.0
0,101,,,,,,,,,,,,,,,,4.0,34.0,d,c,85,2782.0
0,101,,,,,,,,,,,,,,,,4.0,35.0,l,y,41,2614.0
0,101,,,,,,,,,,,,,,,,4.0,36.0,i,l,34,2232.0
0,101,,,,,,,,,,,,,,,,4.0,37.0,g,Z,34,2371.0
0,101,,,,,,,,,,,,,,,,4.0,38.0,m,A,23,2639.0
0,101,,,,,,,,,,,,,,,,4.0,39.0,Y,U,91,2680.0
0,101,,,,,,,,,,,,,,,,4.0,40.0,y,E,70,2560.0
0,101,,,,,,,,,,,,,,,,4.0,41.0,y,Z,29,2872.0
0,101,,,,,,,,,,,,,,,,4.0,42.0,t,Y,64,2752.0
0,101,,,,,,,,,,,,,,,,4.0,43.0,m,O,89,3104.0
0,101,,,,,,,,,,,,,,,,4.0,44.0,h,t,35,3122.0
0,101,,,,,,,,,,,,,,,,4.0,45.0,l,F,32,2773.0
0,101,,,,,,,,,,,,,,,,4.0,46.0,b,P,76,2683.0
0,101,,,,,,,,,,,,,,,,4.0,47.0,o,V,78,2676.0
0,101,,,,,,,,,,,,,,,,4.0,48.0,h,b,69,2589.0
0,101,,,,,,,,,,,,,,,,4.0,49.0,h,T,33,2886.0
0,101,,,,,,,,,,,,,,,,4.0,50.0,v,A,26,3117.0
0,101,,,,,,,,,,,,,,,,4.0,51.0,r,y,27,2780.0
0,101,,,,,,,,,,,,,,,,4.0,52.0,d,P,86,2805.0
0,101,,,,,,,,,,,,,,,,4.0,53.0,V,m,68,4338.0
0,101,,,,,,,,,,,,,,,,4.0,54.0,V,O,32,3086.0
0,101,,,,,,,,,,,,,,,,4.0,55.0,Y,R,88,2624.0
0,101,,,,,,,,,,,,,,,,4.0,56.0,h,D,37,3045.0
0,101,,,,,,,,,,,,,,,,4.0,57.0,b,K,23,2384.0
0,101,,,,,,,,,,,,,,,,4.0,58.0,y,g,32,2980.0
0,101,,,,,,,,,,,,,,,,4.0,59.0,v,L,30,2668.0
0,101,,,,,,,,,,,,,,,,4.0,60.0,c,A,22,2683.0
0,101,,,,,,,,,,,,,,,,4.0,61.0,g,d,65,3609.0
0,101,,,,,,,,,,,,,,,,4.0,62.0,U,d,29,2608.0
0,101,,,,,,,,,,,,,,,,4.0,63.0,h,o,34,2624.0
0,101,,,,,,,,,,,,,,,,4.0,64.0,m,S,32,3996.0
0,101,,,,,,,,,,,,,,,,4.0,65.0,Z,g,28,2633.0
0,101,,,,,,,,,,,,,,,,4.0,66.0,y,B,63,2914.0
0,101,,,,,,,,,,,,,,,,4.0,67.0,Z,a,32,2952.0
0,101,,,,,,,,,,,,,,,,4.0,68.0,u,m,21,3006.0
0,101,,,,,,,,,,,,,,,,4.0,69.0,m,k,27,2906.0
0,101,,,,,,,,,,,,,,,,4.0,70.0,y,L,84,2704.0
0,101,,,,,,,,,,,,,,,,4.0,71.0,g,r,69,2637.0
0,101,,,,,,,,,,,,,,,,4.0,72.0,k,d,34,2946.0
0,101,,,,,,,,,,,,,,,,4.0,73.0,u,c,38,2357.0
0,101,,,,,,,,,,,,,,,,4.0,74.0,o,o,100,2609.0
0,101,,,,,,,,,,,,,,,,4.0,75.0,Z,D,75,2425.0
0,101,,,,,,,,,,,,,,,,4.0,76.0,Z,v,33,2278.0
0,101,,,,,,,,,,,,,,,,4.0,77.0,v,Q,31,2952.0
0,101,,,,,,,,,,,,,,,,4.0,78.0,r,h,21,2944.0
0,101,,,,,,,,,,,,,,,,4.0,79.0,r,a,29,3507.0
0,101,,,,,,,,,,,,,,,,4.0,80.0,t,E,19,2911.0
0,101,,,,,,,,,,,,,,,,5.0,1.0,b,L,58,3530.0
0,101,,,,,,,,,,,,,,,,5.0,2.0,u,G,72,2926.0
0,101,,,,,,,,,,,,,,,,5.0,3.0,i,y,38,2257.0
0,101,,,,,,,,,,,,,,,,5.0,4.0,a,H,29,3169.0
0,101,,,,,,,,,,,,,,,,5.0,5.0,V,h,33,3340.0
0,101,,,,,,,,,,,,,,,,5.0,6.0,b,R,17,2553.0
0,101,,,,,,,,,,,,,,,,5.0,7.0,m,V,27,2960.0
0,101,,,,,,,,,,,,,,,,5.0,8.0,b,B,82,2420.0
0,101,,,,,,,,,,,,,,,,5.0,9.0,Z,i,29,2409.0
0,101,,,,,,,,,,,,,,,,5.0,10.0,c,V,30,2515.0
0,101,,,,,,,,,,,,,,,,5.0,11.0,h,g,33,2780.0
0,101,,,,,,,,,,,,,,,,5.0,12.0,m,K,90,2545.0
0,101,,,,,,,,,,,,,,,,5.0,13.0,l,Z,71,2581.0
0,101,,,,,,,,,,,,,,,,5.0,14.0,t,r,35,3359.0
0,101,,,,,,,,,,,,,,,,5.0,15.0,d,o,72,2692.0
0,101,,,,,,,,,,,,,,,,5.0,16.0,b,r,27,3765.0
0,101,,,,,,,,,,,,,,,,5.0,17.0,d,G,71,3251.0
0,101,,,,,,,,,,,,,,,,5.0,18.0,c,G,36,3259.0
0,101,,,,,,,,,,,,,,,,5.0,19.0,r,r,100,3001.0
0,101,,,,,,,,,,,,,,,,5.0,20.0,g,V,69,2729.0
0,101,,,,,,,,,,,,,,,,5.0,21.0,u,H,28,3762.0
0,101,,,,,,,,,,,,,,,,5.0,22.0,a,b,84,2710.0
0,101,,,,,,,,,,,,,,,,5.0,23.0,c,y,79,2912.0
0,101,,,,,,,,,,,,,,,,5.0,24.0,U,c,27,2794.0
0,101,,,,,,,,,,,,,,,,5.0,25.0,v,u,88,3415.0
0,101,,,,,,,,,,,,,,,,5.0,26.0,a,m,77,2357.0
0,101,,,,,,,,,,,,,,,,5.0,27.0,Z,O,31,3488.0
0,101,,,,,,,,,,,,,,,,5.0,28.0,h,Z,24,2984.0
0,101,,,,,,,,,,,,,,,,5.0,29.0,Y,A,23,2464.0
0,101,,,,,,,,,,,,,,,,5.0,30.0,t,R,77,3069.0
0,101,,,,,,,,,,,,,,,,5.0,31.0,u,r,76,2691.0
0,101,,,,,,,,,,,,,,,,5.0,32.0,i,A,22,2416.0
0,101,,,,,,,,,,,,,,,,5.0,33.0,r,F,87,2655.0
0,101,,,,,,,,,,,,,,,,5.0,34.0,v,V,30,2656.0
0,101,,,,,,,,,,,,,,,,5.0,35.0,h,L,75,2719.0
0,101,,,,,,,,,,,,,,,,5.0,36.0,V,b,73,2511.0
0,101,,,,,,,,,,,,,,,,5.0,37.0,r,M,88,2785.0
0,101,,,,,,,,,,,,,,,,5.0,38.0,h,i,30,2486.0
0,101,,,,,,,,,,,,,,,,5.0,39.0,u,F,12,2543.0
0,101,,,,,,,,,,,,,,,,5.0,40.0,Z,G,26,2630.0
0,101,,,,,,,,,,,,,,,,5.0,41.0,h,Y,22,2417.0
0,101,,,,,,,,,,,,,,,,5.0,42.0,c,N,17,2657.0
0,101,,,,,,,,,,,,,,,,5.0,43.0,Z,y,25,3843.0
0,101,,,,,,,,,,,,,,,,5.0,44.0,r,E,28,2447.0
0,101,,,,,,,,,,,,,,,,5.0,45.0,Z,T,73,2715.0
0,101,,,,,,,,,,,,,,,,5.0,46.0,r,c,30,2822.0
0,101,,,,,,,,,,,,,,,,5.0,47.0,i,Y,26,3606.0
0,101,,,,,,,,,,,,,,,,5.0,48.0,a,h,87,3445.0
0,101,,,,,,,,,,,,,,,,5.0,49.0,i,t,66,3418.0
0,101,,,,,,,,,,,,,,,,5.0,50.0,V,E,36,3178.0
0,101,,,,,,,,,,,,,,,,5.0,51.0,b,d,18,3461.0
0,101,,,,,,,,,,,,,,,,5.0,52.0,v,Z,33,2951.0
0,101,,,,,,,,,,,,,,,,5.0,53.0,Z,Y,66,2955.0
0,101,,,,,,,,,,,,,,,,5.0,54.0,v,I,65,2606.0
0,101,,,,,,,,,,,,,,,,5.0,55.0,l,a,28,3181.0
0,101,,,,,,,,,,,,,,,,5.0,56.0,u,a,32,4827.0
0,101,,,,,,,,,,,,,,,,5.0,57.0,Z,o,63,3380.0
0,101,,,,,,,,,,,,,,,,5.0,58.0,v,T,37,2439.0
0,101,,,,,,,,,,,,,,,,5.0,59.0,u,Q,71,2546.0
0,101,,,,,,,,,,,,,,,,5.0,60.0,V,V,100,5906.0
0,101,,,,,,,,,,,,,,,,5.0,61.0,d,S,22,2408.0
0,101,,,,,,,,,,,,,,,,5.0,62.0,o,h,25,2604.0
0,101,,,,,,,,,,,,,,,,5.0,63.0,v,G,84,2594.0
0,101,,,,,,,,,,,,,,,,5.0,64.0,h,V,28,2686.0
0,101,,,,,,,,,,,,,,,,5.0,65.0,d,Q,70,2740.0
0,101,,,,,,,,,,,,,,,,5.0,66.0,t,D,67,3031.0
0,101,,,,,,,,,,,,,,,,5.0,67.0,a,U,66,2312.0
0,101,,,,,,,,,,,,,,,,5.0,68.0,b,u,30,2862.0
0,101,,,,,,,,,,,,,,,,5.0,69.0,l,l,100,3966.0
0,101,,,,,,,,,,,,,,,,5.0,70.0,u,I,23,2624.0
0,101,,,,,,,,,,,,,,,,5.0,71.0,U,R,85,2543.0
0,101,,,,,,,,,,,,,,,,5.0,72.0,k,b,75,2916.0
0,101,,,,,,,,,,,,,,,,5.0,73.0,y,a,61,5380.0
0,101,,,,,,,,,,,,,,,,5.0,74.0,c,L,80,2602.0
0,101,,,,,,,,,,,,,,,,5.0,75.0,r,g,28,3012.0
0,101,,,,,,,,,,,,,,,,5.0,76.0,b,N,28,2686.0
0,101,,,,,,,,,,,,,,,,5.0,77.0,d,k,34,3840.0
0,101,,,,,,,,,,,,,,,,5.0,78.0,d,i,28,2898.0
0,101,,,,,,,,,,,,,,,,5.0,79.0,g,D,33,3374.0
0,101,,,,,,,,,,,,,,,,5.0,80.0,o,E,25,2901.0
0,101,,,,,,,,,,,,,,,,6.0,1.0,d,I,38,3595.0
0,101,,,,,,,,,,,,,,,,6.0,2.0,U,A,26,2666.0
0,101,,,,,,,,,,,,,,,,6.0,3.0,u,C,65,2488.0
0,101,,,,,,,,,,,,,,,,6.0,4.0,h,Q,28,2379.0
0,101,,,,,,,,,,,,,,,,6.0,5.0,k,M,80,3447.0
0,101,,,,,,,,,,,,,,,,6.0,6.0,d,l,80,3205.0
0,101,,,,,,,,,,,,,,,,6.0,7.0,i,V,35,4207.0
0,101,,,,,,,,,,,,,,,,6.0,8.0,h,d,35,4609.0
0,101,,,,,,,,,,,,,,,,6.0,9.0,k,y,39,3204.0
0,101,,,,,,,,,,,,,,,,6.0,10.0,U,i,34,3300.0
0,101,,,,,,,,,,,,,,,,6.0,11.0,u,D,34,2356.0
0,101,,,,,,,,,,,,,,,,6.0,12.0,Z,l,25,2498.0
0,101,,,,,,,,,,,,,,,,6.0,13.0,r,b,29,2742.0
0,101,,,,,,,,,,,,,,,,6.0,14.0,U,m,33,2443.0
0,101,,,,,,,,,,,,,,,,6.0,15.0,v,C,21,2329.0
0,101,,,,,,,,,,,,,,,,6.0,16.0,b,Q,24,2611.0
0,101,,,,,,,,,,,,,,,,6.0,17.0,u,R,79,2156.0
0,101,,,,,,,,,,,,,,,,6.0,18.0,t,A,33,2450.0
0,101,,,,,,,,,,,,,,,,6.0,19.0,t,y,29,2566.0
0,101,,,,,,,,,,,,,,,,6.0,20.0,k,U,20,2488.0
0,101,,,,,,,,,,,,,,,,6.0,21.0,m,D,29,2509.0
0,101,,,,,,,,,,,,,,,,6.0,22.0,r,i,64,2940.0
0,101,,,,,,,,,,,,,,,,6.0,23.0,k,N,39,2508.0
0,101,,,,,,,,,,,,,,,,6.0,24.0,i,k,78,2517.0
0,101,,,,,,,,,,,,,,,,6.0,25.0,a,i,33,2287.0
0,101,,,,,,,,,,,,,,,,6.0,26.0,m,B,79,2876.0
0,101,,,,,,,,,,,,,,,,6.0,27.0,m,h,63,3086.0
0,101,,,,,,,,,,,,,,,,6.0,28.0,o,D,35,3422.0
0,101,,,,,,,,,,,,,,,,6.0,29.0,Z,H,32,2724.0
0,101,,,,,,,,,,,,,,,,6.0,30.0,d,B,68,2533.0
0,101,,,,,,,,,,,,,,,,6.0,31.0,k,v,31,6254.0
0,101,,,,,,,,,,,,,,,,6.0,32.0,g,m,30,2673.0
0,101,,,,,,,,,,,,,,,,6.0,33.0,h,E,26,3034.0
0,101,,,,,,,,,,,,,,,,6.0,34.0,U,r,33,2827.0
0,101,,,,,,,,,,,,,,,,6.0,35.0,g,C,68,2778.0
0,101,,,,,,,,,,,,,,,,6.0,36.0,r,O,28,3224.0
0,101,,,,,,,,,,,,,,,,6.0,37.0,a,B,28,3069.0
0,101,,,,,,,,,,,,,,,,6.0,38.0,d,M,70,3409.0
0,101,,,,,,,,,,,,,,,,6.0,39.0,Z,Q,86,2500.0
0,101,,,,,,,,,,,,,,,,6.0,40.0,i,O,72,5918.0
0,101,,,,,,,,,,,,,,,,6.0,41.0,V,a,32,4624.0
0,101,,,,,,,,,,,,,,,,6.0,42.0,k,u,28,2592.0
0,101,,,,,,,,,,,,,,,,6.0,43.0,d,A,27,2200.0
0,101,,,,,,,,,,,,,,,,6.0,44.0,m,M,76,2499.0
0,101,,,,,,,,,,,,,,,,6.0,45.0,o,G,30,3455.0
0,101,,,,,,,,,,,,,,,,6.0,46.0,u,V,24,2753.0
0,101,,,,,,,,,,,,,,,,6.0,47.0,U,P,33,2758.0
0,101,,,,,,,,,,,,,,,,6.0,48.0,v,K,22,2543.0
0,101,,,,,,,,,,,,,,,,6.0,49.0,t,C,74,2451.0
0,101,,,,,,,,,,,,,,,,6.0,50.0,a,I,33,2279.0
0,101,,,,,,,,,,,,,,,,6.0,51.0,c,B,31,2810.0
0,101,,,,,,,,,,,,,,,,6.0,52.0,g,N,36,3071.0
0,101,,,,,,,,,,,,,,,,6.0,53.0,i,a,27,2670.0
0,101,,,,,,,,,,,,,,,,6.0,54.0,r,Q,67,2720.0
0,101,,,,,,,,,,,,,,,,6.0,55.0,a,v,35,3045.0
0,101,,,,,,,,,,,,,,,,6.0,56.0,g,o,31,2478.0
0,101,,,,,,,,,,,,,,,,6.0,57.0,U,a,35,2606.0
0,101,,,,,,,,,,,,,,,,6.0,58.0,u,u,100,3253.0
0,101,,,,,,,,,,,,,,,,6.0,59.0,l,Q,35,2570.0
0,101,,,,,,,,,,,,,,,,6.0,60.0,m,y,68,2836.0
0,101,,,,,,,,,,,,,,,,6.0,61.0,d,a,31,2107.0
0,101,,,,,,,,,,,,,,,,6.0,62.0,v,c,67,3778.0
0,101,,,,,,,,,,,,,,,,6.0,63.0,t,d,78,3117.0
0,101,,,,,,,,,,,,,,,,6.0,64.0,o,O,35,2753.0
0,101,,,,,,,,,,,,,,,,6.0,65.0,Z,h,33,2680.0
0,101,,,,,,,,,,,,,,,,6.0,66.0,l,i,23,2484.0
0,101,,,,,,,,,,,,,,,,6.0,67.0,Y,L,37,2683.0
0,101,,,,,,,,,,,,,,,,6.0,68.0,v,P,71,5689.0
0,101,,,,,,,,,,,,,,,,6.0,69.0,t,F,33,9231.0
0,101,,,,,,,,,,,,,,,,6.0,70.0,v,B,34,2312.0
0,101,,,,,,,,,,,,,,,,6.0,71.0,k,H,30,2263.0
0,101,,,,,,,,,,,,,,,,6.0,72.0,o,v,36,2114.0
0,101,,,,,,,,,,,,,,,,6.0,73.0,i,u,63,2276.0
0,101,,,,,,,,,,,,,,,,6.0,74.0,h,l,69,2861.0
0,101,,,,,,,,,,,,,,,,6.0,75.0,v,m,83,3605.0
0,101,,,,,,,,,,,,,,,,6.0,76.0,o,d,70,2651.0
0,101,,,,,,,,,,,,,,,,6.0,77.0,k,h,36,2744.0
0,101,,,,,,,,,,,,,,,,6.0,78.0,g,M,83,3015.0
0,101,,,,,,,,,,,,,,,,6.0,79.0,U,Z,77,2594.0
0,101,,,,,,,,,,,,,,,,6.0,80.0,k,m,74,2469.0
0,101,,,,,,,,,,,,,,,,7.0,1.0,V,d,33,3791.0
0,101,,,,,,,,,,,,,,,,7.0,2.0,d,H,24,3356.0
0,101,,,,,,,,,,,,,,,,7.0,3.0,o,P,30,2857.0
0,101,,,,,,,,,,,,,,,,7.0,4.0,U,B,38,2748.0
0,101,,,,,,,,,,,,,,,,7.0,5.0,k,g,32,3225.0
0,101,,,,,,,,,,,,,,,,7.0,6.0,d,v,66,3040.0
0,101,,,,,,,,,,,,,,,,7.0,7.0,g,t,30,2784.0
0,101,,,,,,,,,,,,,,,,7.0,8.0,u,E,20,2471.0
0,101,,,,,,,,,,,,,,,,7.0,9.0,g,S,34,2491.0
0,101,,,,,,,,,,,,,,,,7.0,10.0,g,K,58,3202.0
0,101,,,,,,,,,,,,,,,,7.0,11.0,V,Q,34,2425.0
0,101,,,,,,,,,,,,,,,,7.0,12.0,m,b,65,7495.0
0,101,,,,,,,,,,,,,,,,7.0,13.0,Y,h,33,4070.0
0,101,,,,,,,,,,,,,,,,7.0,14.0,i,S,21,2995.0
0,101,,,,,,,,,,,,,,,,7.0,15.0,v,d,68,3069.0
0,101,,,,,,,,,,,,,,,,7.0,16.0,a,y,35,2470.0
0,101,,,,,,,,,,,,,,,,7.0,17.0,a,r,30,2795.0
0,101,,,,,,,,,,,,,,,,7.0,18.0,a,E,66,2921.0
0,101,,,,,,,,,,,,,,,,7.0,19.0,b,t,29,2531.0
0,101,,,,,,,,,,,,,,,,7.0,20.0,c,Q,24,2589.0
0,101,,,,,,,,,,,,,,,,7.0,21.0,U,h,20,2711.0
0,101,,,,,,,,,,,,,,,,7.0,22.0,y,b,66,2548.0
0,101,,,,,,,,,,,,,,,,7.0,23.0,m,F,66,3111.0
0,101,,,,,,,,,,,,,,,,7.0,24.0,a,Z,35,2770.0
0,101,,,,,,,,,,,,,,,,7.0,25.0,y,O,70,3109.0
0,101,,,,,,,,,,,,,,,,7.0,26.0,d,r,65,2884.0
0,101,,,,,,,,,,,,,,,,7.0,27.0,h,J,31,4073.0
0,101,,,,,,,,,,,,,,,,7.0,28.0,o,C,22,3174.0
0,101,,,,,,,,,,,,,,,,7.0,29.0,r,L,29,3677.0
0,101,,,,,,,,,,,,,,,,7.0,30.0,m,T,28,2645.0
0,101,,,,,,,,,,,,,,,,7.0,31.0,c,P,22,2844.0
0,101,,,,,,,,,,,,,,,,7.0,32.0,v,D,34,3067.0
0,101,,,,,,,,,,,,,,,,7.0,33.0,k,F,67,2625.0
0,101,,,,,,,,,,,,,,,,7.0,34.0,t,J,70,2746.0
0,101,,,,,,,,,,,,,,,,7.0,35.0,h,h,100,4617.0
0,101,,,,,,,,,,,,,,,,7.0,36.0,c,b,36,2483.0
0,101,,,,,,,,,,,,,,,,7.0,37.0,m,R,26,2385.0
0,101,,,,,,,,,,,,,,,,7.0,38.0,o,N,69,3051.0
0,101,,,,,,,,,,,,,,,,7.0,39.0,i,b,68,2783.0
0,101,,,,,,,,,,,,,,,,7.0,40.0,i,R,36,3653.0
0,101,,,,,,,,,,,,,,,,7.0,41.0,V,r,35,3785.0
0,101,,,,,,,,,,,,,,,,7.0,42.0,u,o,30,2645.0
0,101,,,,,,,,,,,,,,,,7.0,43.0,u,U,29,2467.0
0,101,,,,,,,,,,,,,,,,7.0,44.0,i,N,17,2430.0
0,101,,,,,,,,,,,,,,,,7.0,45.0,o,Q,62,2505.0
0,101,,,,,,,,,,,,,,,,7.0,46.0,g,E,26,2436.0
0,101,,,,,,,,,,,,,,,,7.0,47.0,V,K,92,3378.0
0,101,,,,,,,,,,,,,,,,7.0,48.0,t,P,64,2955.0
0,101,,,,,,,,,,,,,,,,7.0,49.0,l,T,32,3052.0
0,101,,,,,,,,,,,,,,,,7.0,50.0,v,E,69,2371.0
0,101,,,,,,,,,,,,,,,,7.0,51.0,l,Y,31,2963.0
0,101,,,,,,,,,,,,,,,,7.0,52.0,V,P,83,2709.0
0,101,,,,,,,,,,,,,,,,7.0,53.0,h,M,69,2700.0
0,101,,,,,,,,,,,,,,,,7.0,54.0,t,G,78,2093.0
0,101,,,,,,,,,,,,,,,,7.0,55.0,a,D,34,2157.0
0,101,,,,,,,,,,,,,,,,7.0,56.0,h,A,25,3715.0
0,101,,,,,,,,,,,,,,,,7.0,57.0,b,m,34,2397.0
0,101,,,,,,,,,,,,,,,,7.0,58.0,g,u,25,2406.0
0,101,,,,,,,,,,,,,,,,7.0,59.0,b,C,32,2745.0
0,101,,,,,,,,,,,,,,,,7.0,60.0,r,U,78,2976.0
0,101,,,,,,,,,,,,,,,,7.0,61.0,d,F,34,3007.0
0,101,,,,,,,,,,,,,,,,7.0,62.0,a,M,30,2342.0
0,101,,,,,,,,,,,,,,,,7.0,63.0,Z,K,28,2327.0
0,101,,,,,,,,,,,,,,,,7.0,64.0,r,V,72,2589.0
0,101,,,,,,,,,,,,,,,,7.0,65.0,y,o,31,2500.0
0,101,,,,,,,,,,,,,,,,7.0,66.0,v,O,30,2450.0
0,101,,,,,,,,,,,,,,,,7.0,67.0,t,I,34,2139.0
0,101,,,,,,,,,,,,,,,,7.0,68.0,Y,i,21,2574.0
0,101,,,,,,,,,,,,,,,,7.0,69.0,d,u,70,2773.0
0,101,,,,,,,,,,,,,,,,7.0,70.0,y,u,29,2360.0
0,101,,,,,,,,,,,,,,,,7.0,71.0,a,C,22,2934.0
0,101,,,,,,,,,,,,,,,,7.0,72.0,U,Y,85,2511.0
0,101,,,,,,,,,,,,,,,,7.0,73.0,b,O,72,2563.0
0,101,,,,,,,,,,,,,,,,7.0,74.0,d,L,86,2856.0
0,101,,,,,,,,,,,,,,,,7.0,75.0,a,K,32,2557.0
0,101,,,,,,,,,,,,,,,,7.0,76.0,Z,E,17,2330.0
0,101,,,,,,,,,,,,,,,,7.0,77.0,Z,b,26,2792.0
0,101,,,,,,,,,,,,,,,,7.0,78.0,h,c,26,2858.0
0,101,,,,,,,,,,,,,,,,7.0,79.0,u,Z,29,2160.0
0,101,,,,,,,,,,,,,,,,7.0,80.0,d,U,28,2934.0
0,101,,,,,,,,,,,,,,,,8.0,1.0,y,V,73,3442.0
0,101,,,,,,,,,,,,,,,,8.0,2.0,k,Q,68,3540.0
0,101,,,,,,,,,,,,,,,,8.0,3.0,V,i,65,4106.0
0,101,,,,,,,,,,,,,,,,8.0,4.0,o,u,36,3435.0
0,101,,,,,,,,,,,,,,,,8.0,5.0,U,K,40,3525.0
0,101,,,,,,,,,,,,,,,,8.0,6.0,t,O,27,2903.0
0,101,,,,,,,,,,,,,,,,8.0,7.0,r,C,33,2172.0
0,101,,,,,,,,,,,,,,,,8.0,8.0,i,I,34,2164.0
0,101,,,,,,,,,,,,,,,,8.0,9.0,Z,u,71,2515.0
0,101,,,,,,,,,,,,,,,,8.0,10.0,v,r,28,2227.0
0,101,,,,,,,,,,,,,,,,8.0,11.0,m,v,37,2514.0
0,101,,,,,,,,,,,,,,,,8.0,12.0,y,P,33,2807.0
0,101,,,,,,,,,,,,,,,,8.0,13.0,u,L,26,2501.0
0,101,,,,,,,,,,,,,,,,8.0,14.0,Z,r,75,2623.0
0,101,,,,,,,,,,,,,,,,8.0,15.0,g,c,36,2411.0
0,101,,,,,,,,,,,,,,,,8.0,16.0,i,h,26,2608.0
0,101,,,,,,,,,,,,,,,,8.0,17.0,m,Y,19,2620.0
0,101,,,,,,,,,,,,,,,,8.0,18.0,o,i,22,2313.0
0,101,,,,,,,,,,,,,,,,8.0,19.0,m,U,29,2540.0
0,101,,,,,,,,,,,,,,,,8.0,20.0,d,h,26,2416.0
0,101,,,,,,,,,,,,,,,,8.0,21.0,h,B,24,2531.0
0,101,,,,,,,,,,,,,,,,8.0,22.0,v,H,24,2677.0
0,101,,,,,,,,,,,,,,,,8.0,23.0,o,I,33,2952.0
0,101,,,,,,,,,,,,,,,,8.0,24.0,V,A,21,3593.0
0,101,,,,,,,,,,,,,,,,8.0,25.0,l,E,26,2430.0
0,101,,,,,,,,,,,,,,,,8.0,26.0,V,D,67,4352.0
0,101,,,,,,,,,,,,,,,,8.0,27.0,V,R,68,3246.0
0,101,,,,,,,,,,,,,,,,8.0,28.0,Y,k,33,2265.0
0,101,,,,,,,,,,,,,,,,8.0,29.0,m,Z,12,3684.0
0,101,,,,,,,,,,,,,,,,8.0,30.0,l,h,28,2483.0
0,101,,,,,,,,,,,,,,,,8.0,31.0,i,c,32,3210.0
0,101,,,,,,,,,,,,,,,,8.0,32.0,m,G,18,2606.0
0,101,,,,,,,,,,,,,,,,8.0,33.0,u,K,24,3214.0
0,101,,,,,,,,,,,,,,,,8.0,34.0,o,l,91,3445.0
0,101,,,,,,,,,,,,,,,,8.0,35.0,i,B,35,3202.0
0,101,,,,,,,,,,,,,,,,8.0,36.0,k,O,89,2667.0
0,101,,,,,,,,,,,,,,,,8.0,37.0,V,H,70,2341.0
0,101,,,,,,,,,,,,,,,,8.0,38.0,c,E,34,2791.0
0,101,,,,,,,,,,,,,,,,8.0,39.0,Y,y,74,2763.0
0,101,,,,,,,,,,,,,,,,8.0,40.0,a,g,29,2398.0
0,101,,,,,,,,,,,,,,,,8.0,41.0,t,m,27,2495.0
0,101,,,,,,,,,,,,,,,,8.0,42.0,c,h,31,2653.0
0,101,,,,,,,,,,,,,,,,8.0,43.0,o,F,67,3267.0
0,101,,,,,,,,,,,,,,,,8.0,44.0,Y,l,65,2605.0
0,101,,,,,,,,,,,,,,,,8.0,45.0,o,m,25,2540.0
0,101,,,,,,,,,,,,,,,,8.0,46.0,v,t,74,2775.0
0,101,,,,,,,,,,,,,,,,8.0,47.0,k,a,64,2532.0
0,101,,,,,,,,,,,,,,,,8.0,48.0,h,U,33,2344.0
0,101,,,,,,,,,,,,,,,,8.0,49.0,Z,J,27,2935.0
0,101,,,,,,,,,,,,,,,,8.0,50.0,Z,C,67,2892.0
0,101,,,,,,,,,,,,,,,,8.0,51.0,d,R,73,4111.0
0,101,,,,,,,,,,,,,,,,8.0,52.0,m,Q,32,2652.0
0,101,,,,,,,,,,,,,,,,8.0,53.0,k,C,29,2177.0
0,101,,,,,,,,,,,,,,,,8.0,54.0,Y,v,32,2351.0
0,101,,,,,,,,,,,,,,,,8.0,55.0,Z,A,26,2420.0
0,101,,,,,,,,,,,,,,,,8.0,56.0,Y,M,69,3240.0
0,101,,,,,,,,,,,,,,,,8.0,57.0,l,O,27,2527.0
0,101,,,,,,,,,,,,,,,,8.0,58.0,V,Z,71,3308.0
0,101,,,,,,,,,,,,,,,,8.0,59.0,g,g,100,2734.0
0,101,,,,,,,,,,,,,,,,8.0,60.0,l,V,73,3357.0
0,101,,,,,,,,,,,,,,,,8.0,61.0,Y,K,24,2715.0
0,101,,,,,,,,,,,,,,,,8.0,62.0,U,M,70,2913.0
0,101,,,,,,,,,,,,,,,,8.0,63.0,v,U,69,2840.0
0,101,,,,,,,,,,,,,,,,8.0,64.0,Y,t,67,2583.0
0,101,,,,,,,,,,,,,,,,8.0,65.0,u,A,24,2642.0
0,101,,,,,,,,,,,,,,,,8.0,66.0,o,Z,71,2312.0
0,101,,,,,,,,,,,,,,,,8.0,67.0,u,y,26,2293.0
0,101,,,,,,,,,,,,,,,,8.0,68.0,U,E,8,2654.0
0,101,,,,,,,,,,,,,,,,8.0,69.0,d,V,69,2593.0
0,101,,,,,,,,,,,,,,,,8.0,70.0,b,J,31,2251.0
0,101,,,,,,,,,,,,,,,,8.0,71.0,d,J,69,2573.0
0,101,,,,,,,,,,,,,,,,8.0,72.0,v,i,35,2371.0
0,101,,,,,,,,,,,,,,,,8.0,73.0,u,l,27,3577.0
0,101,,,,,,,,,,,,,,,,8.0,74.0,U,t,21,3242.0
0,101,,,,,,,,,,,,,,,,8.0,75.0,m,P,71,2458.0
0,101,,,,,,,,,,,,,,,,8.0,76.0,l,P,67,2862.0
0,101,,,,,,,,,,,,,,,,8.0,77.0,g,b,25,3480.0
0,101,,,,,,,,,,,,,,,,8.0,78.0,Y,u,60,4335.0
0,101,,,,,,,,,,,,,,,,8.0,79.0,Y,b,28,3148.0
0,101,,,,,,,,,,,,,,,,8.0,80.0,d,y,88,4763.0
0,101,,,,,,,,,,,,,,,,9.0,1.0,U,C,74,2884.0
0,101,,,,,,,,,,,,,,,,9.0,2.0,Z,P,32,2997.0
0,101,,,,,,,,,,,,,,,,9.0,3.0,t,N,70,2956.0
0,101,,,,,,,,,,,,,,,,9.0,4.0,r,S,58,3794.0
0,101,,,,,,,,,,,,,,,,9.0,5.0,y,c,68,2693.0
0,101,,,,,,,,,,,,,,,,9.0,6.0,m,L,84,3246.0
0,101,,,,,,,,,,,,,,,,9.0,7.0,g,I,32,2817.0
0,101,,,,,,,,,,,,,,,,9.0,8.0,c,D,24,2332.0
0,101,,,,,,,,,,,,,,,,9.0,9.0,Z,S,32,2299.0
0,101,,,,,,,,,,,,,,,,9.0,10.0,u,d,24,2560.0
0,101,,,,,,,,,,,,,,,,9.0,11.0,a,P,75,2238.0
0,101,,,,,,,,,,,,,,,,9.0,12.0,U,u,68,3277.0
0,101,,,,,,,,,,,,,,,,9.0,13.0,Y,g,25,2338.0
0,101,,,,,,,,,,,,,,,,9.0,14.0,r,A,23,7033.0
0,101,,,,,,,,,,,,,,,,9.0,15.0,U,y,20,5763.0
0,101,,,,,,,,,,,,,,,,9.0,16.0,m,r,69,3133.0
0,101,,,,,,,,,,,,,,,,9.0,17.0,g,H,31,2125.0
0,101,,,,,,,,,,,,,,,,9.0,18.0,y,H,66,2647.0
0,101,,,,,,,,,,,,,,,,9.0,19.0,k,G,28,4851.0
0,101,,,,,,,,,,,,,,,,9.0,20.0,u,P,35,2472.0
0,101,,,,,,,,,,,,,,,,9.0,21.0,U,T,68,2993.0
0,101,,,,,,,,,,,,,,,,9.0,22.0,d,Y,69,2507.0
0,101,,,,,,,,,,,,,,,,9.0,23.0,v,y,30,2579.0
0,101,,,,,,,,,,,,,,,,9.0,24.0,a,Q,29,2482.0
0,101,,,,,,,,,,,,,,,,9.0,25.0,v,N,68,2565.0
0,101,,,,,,,,,,,,,,,,9.0,26.0,l,r,66,9225.0
0,101,,,,,,,,,,,,,,,,9.0,27.0,d,d,100,2434.0
0,101,,,,,,,,,,,,,,,,9.0,28.0,t,H,76,3074.0
0,101,,,,,,,,,,,,,,,,9.0,29.0,c,S,27,3674.0
0,101,,,,,,,,,,,,,,,,9.0,30.0,m,H,16,5236.0
0,101,,,,,,,,,,,,,,,,9.0,31.0,V,t,36,2592.0
0,101,,,,,,,,,,,,,,,,9.0,32.0,l,N,69,2768.0
0,101,,,,,,,,,,,,,,,,9.0,33.0,l,c,35,2658.0
0,101,,,,,,,,,,,,,,,,9.0,34.0,i,m,25,3150.0
0,101,,,,,,,,,,,,,,,,9.0,35.0,d,N,72,3350.0
0,101,,,,,,,,,,,,,,,,9.0,36.0,d,D,69,3178.0
0,101,,,,,,,,,,,,,,,,9.0,37.0,y,C,70,2191.0
0,101,,,,,,,,,,,,,,,,9.0,38.0,i,L,29,3467.0
0,101,,,,,,,,,,,,,,,,9.0,39.0,i,J,36,2859.0
0,101,,,,,,,,,,,,,,,,9.0,40.0,y,v,33,2687.0
0,101,,,,,,,,,,,,,,,,9.0,41.0,o,R,31,2216.0
0,101,,,,,,,,,,,,,,,,9.0,42.0,a,l,65,2745.0
0,101,,,,,,,,,,,,,,,,9.0,43.0,d,Z,89,3466.0
0,101,,,,,,,,,,,,,,,,9.0,44.0,r,K,31,3208.0
0,101,,,,,,,,,,,,,,,,9.0,45.0,Z,t,77,2548.0
0,101,,,,,,,,,,,,,,,,9.0,46.0,m,o,32,3097.0
0,101,,,,,,,,,,,,,,,,9.0,47.0,b,G,72,2465.0
0,101,,,,,,,,,,,,,,,,9.0,48.0,g,Y,69,2775.0
0,101,,,,,,,,,,,,,,,,9.0,49.0,k,r,88,3834.0
0,101,,,,,,,,,,,,,,,,9.0,50.0,U,G,91,3447.0
0,101,,,,,,,,,,,,,,,,9.0,51.0,h,k,74,1946.0
0,101,,,,,,,,,,,,,,,,9.0,52.0,Z,d,67,2545.0
0,101,,,,,,,,,,,,,,,,9.0,53.0,U,D,76,2819.0
0,101,,,,,,,,,,,,,,,,9.0,54.0,U,v,86,2528.0
0,101,,,,,,,,,,,,,,,,9.0,55.0,t,V,35,2373.0
0,101,,,,,,,,,,,,,,,,9.0,56.0,l,C,64,3281.0
0,101,,,,,,,,,,,,,,,,9.0,57.0,r,m,34,3099.0
0,101,,,,,,,,,,,,,,,,9.0,58.0,Z,N,68,2854.0
0,101,,,,,,,,,,,,,,,,9.0,59.0,Y,m,70,2398.0
0,101,,,,,,,,,,,,,,,,9.0,60.0,b,E,69,7072.0
0,101,,,,,,,,,,,,,,,,9.0,61.0,k,t,75,5924.0
0,101,,,,,,,,,,,,,,,,9.0,62.0,d,K,67,4987.0
0,101,,,,,,,,,,,,,,,,9.0,63.0,r,B,67,2162.0
0,101,,,,,,,,,,,,,,,,9.0,64.0,i,M,38,2281.0
0,101,,,,,,,,,,,,,,,,9.0,65.0,V,l,79,3503.0
0,101,,,,,,,,,,,,,,,,9.0,66.0,u,M,70,2861.0
0,101,,,,,,,,,,,,,,,,9.0,67.0,c,C,64,2964.0
0,101,,,,,,,,,,,,,,,,9.0,68.0,U,F,75,2509.0
0,101,,,,,,,,,,,,,,,,9.0,69.0,h,R,36,2604.0
0,101,,,,,,,,,,,,,,,,9.0,70.0,h,K,27,3168.0
0,101,,,,,,,,,,,,,,,,9.0,71.0,c,O,82,3966.0
0,101,,,,,,,,,,,,,,,,9.0,72.0,m,t,22,3138.0
0,101,,,,,,,,,,,,,,,,9.0,73.0,t,M,57,3052.0
0,101,,,,,,,,,,,,,,,,9.0,74.0,Y,O,71,3018.0
0,101,,,,,,,,,,,,,,,,9.0,75.0,v,a,32,3791.0
0,101,,,,,,,,,,,,,,,,9.0,76.0,o,S,29,2930.0
0,101,,,,,,,,,,,,,,,,9.0,77.0,l,u,82,3138.0
0,101,,,,,,,,,,,,,,,,9.0,78.0,V,c,28,2519.0
0,101,,,,,,,,,,,,,,,,9.0,79.0,i,v,29,2964.0
0,101,,,,,,,,,,,,,,,,9.0,80.0,m,m,100,3123.0
0,101,,,,,,,,,,,,,,,,10.0,1.0,b,F,66,2969.0
0,101,,,,,,,,,,,,,,,,10.0,2.0,i,D,75,2325.0
0,101,,,,,,,,,,,,,,,,10.0,3.0,i,Q,82,2313.0
0,101,,,,,,,,,,,,,,,,10.0,4.0,c,l,63,2362.0
0,101,,,,,,,,,,,,,,,,10.0,5.0,k,S,32,2278.0
0,101,,,,,,,,,,,,,,,,10.0,6.0,t,g,26,2325.0
0,101,,,,,,,,,,,,,,,,10.0,7.0,a,d,64,2317.0
0,101,,,,,,,,,,,,,,,,10.0,8.0,t,l,66,2468.0
0,101,,,,,,,,,,,,,,,,10.0,9.0,Z,B,75,4065.0
0,101,,,,,,,,,,,,,,,,10.0,10.0,t,k,90,3039.0
0,101,,,,,,,,,,,,,,,,10.0,11.0,i,d,72,2469.0
0,101,,,,,,,,,,,,,,,,10.0,12.0,c,K,34,3430.0
0,101,,,,,,,,,,,,,,,,10.0,13.0,a,S,35,5809.0
0,101,,,,,,,,,,,,,,,,10.0,14.0,i,E,78,2453.0
0,101,,,,,,,,,,,,,,,,10.0,15.0,t,c,85,2545.0
0,101,,,,,,,,,,,,,,,,10.0,16.0,l,v,73,2423.0
0,101,,,,,,,,,,,,,,,,10.0,17.0,o,k,30,2310.0
0,101,,,,,,,,,,,,,,,,10.0,18.0,r,l,27,2495.0
0,101,,,,,,,,,,,,,,,,10.0,19.0,y,T,30,2639.0
0,101,,,,,,,,,,,,,,,,10.0,20.0,b,l,69,2914.0
0,101,,,,,,,,,,,,,,,,10.0,21.0,o,b,73,2297.0
0,101,,,,,,,,,,,,,,,,10.0,22.0,o,M,85,2660.0
0,101,,,,,,,,,,,,,,,,10.0,23.0,h,m,68,2649.0
0,101,,,,,,,,,,,,,,,,10.0,24.0,k,k,100,3228.0
0,101,,,,,,,,,,,,,,,,10.0,25.0,k,o,61,2360.0
0,101,,,,,,,,,,,,,,,,10.0,26.0,a,T,29,2659.0
0,101,,,,,,,,,,,,,,,,10.0,27.0,h,G,29,2224.0
0,101,,,,,,,,,,,,,,,,10.0,28.0,k,T,70,2702.0
0,101,,,,,,,,,,,,,,,,10.0,29.0,b,v,36,3182.0
0,101,,,,,,,,,,,,,,,,10.0,30.0,m,I,29,2525.0
0,101,,,,,,,,,,,,,,,,10.0,31.0,l,G,74,2386.0
0,101,,,,,,,,,,,,,,,,10.0,32.0,m,E,66,3211.0
0,101,,,,,,,,,,,,,,,,10.0,33.0,V,g,80,3110.0
0,101,,,,,,,,,,,,,,,,10.0,34.0,k,K,62,4033.0
0,101,,,,,,,,,,,,,,,,10.0,35.0,k,V,68,3069.0
0,101,,,,,,,,,,,,,,,,10.0,36.0,V,F,88,4172.0
0,101,,,,,,,,,,,,,,,,10.0,37.0,b,H,37,2531.0
0,101,,,,,,,,,,,,,,,,10.0,38.0,t,b,28,2371.0
0,101,,,,,,,,,,,,,,,,10.0,39.0,U,k,79,3745.0
0,101,,,,,,,,,,,,,,,,10.0,40.0,u,t,83,2341.0
0,101,,,,,,,,,,,,,,,,10.0,41.0,c,H,32,2500.0
0,101,,,,,,,,,,,,,,,,10.0,42.0,r,k,81,2808.0
0,101,,,,,,,,,,,,,,,,10.0,43.0,k,c,71,2666.0
0,101,,,,,,,,,,,,,,,,10.0,44.0,k,A,31,2484.0
0,101,,,,,,,,,,,,,,,,10.0,45.0,k,R,72,2325.0
0,101,,,,,,,,,,,,,,,,10.0,46.0,y,I,35,3592.0
0,101,,,,,,,,,,,,,,,,10.0,47.0,Z,F,89,4013.0
0,101,,,,,,,,,,,,,,,,10.0,48.0,o,L,29,2619.0
0,101,,,,,,,,,,,,,,,,10.0,49.0,o,A,61,2515.0
0,101,,,,,,,,,,,,,,,,10.0,50.0,i,G,69,2273.0
0,101,,,,,,,,,,,,,,,,10.0,51.0,k,B,40,3216.0
0,101,,,,,,,,,,,,,,,,10.0,52.0,i,g,79,2340.0
0,101,,,,,,,,,,,,,,,,10.0,53.0,v,g,33,2626.0
0,101,,,,,,,,,,,,,,,,10.0,54.0,r,J,73,2971.0
0,101,,,,,,,,,,,,,,,,10.0,55.0,y,A,30,2612.0
0,101,,,,,,,,,,,,,,,,10.0,56.0,r,I,25,2742.0
0,101,,,,,,,,,,,,,,,,10.0,57.0,o,U,77,3221.0
0,101,,,,,,,,,,,,,,,,10.0,58.0,Y,D,67,2896.0
0,101,,,,,,,,,,,,,,,,10.0,59.0,Y,C,86,2618.0
0,101,,,,,,,,,,,,,,,,10.0,60.0,i,T,65,2757.0
0,101,,,,,,,,,,,,,,,,10.0,61.0,t,Q,79,3067.0
0,101,,,,,,,,,,,,,,,,10.0,62.0,r,Y,70,2339.0
0,101,,,,,,,,,,,,,,,,10.0,63.0,g,i,38,2463.0
0,101,,,,,,,,,,,,,,,,10.0,64.0,m,i,31,3136.0
0,101,,,,,,,,,,,,,,,,10.0,65.0,m,N,31,2374.0
0,101,,,,,,,,,,,,,,,,10.0,66.0,l,L,67,2430.0
0,101,,,,,,,,,,,,,,,,10.0,67.0,y,k,67,2405.0
0,101,,,,,,,,,,,,,,,,10.0,68.0,k,L,29,2975.0
0,101,,,,,,,,,,,,,,,,10.0,69.0,Y,S,84,2569.0
0,101,,,,,,,,,,,,,,,,10.0,70.0,b,b,100,3057.0
0,101,,,,,,,,,,,,,,,,10.0,71.0,y,J,28,2733.0
0,101,,,,,,,,,,,,,,,,10.0,72.0,g,v,30,3453.0
0,101,,,,,,,,,,,,,,,,10.0,73.0,a,t,31,3248.0
0,101,,,,,,,,,,,,,,,,10.0,74.0,t,h,25,2487.0
0,101,,,,,,,,,,,,,,,,10.0,75.0,c,k,72,2403.0
0,101,,,,,,,,,,,,,,,,10.0,76.0,i,U,31,2341.0
0,101,,,,,,,,,,,,,,,,10.0,77.0,g,R,65,2758.0
0,101,,,,,,,,,,,,,,,,10.0,78.0,Y,F,68,2669.0
0,101,,,,,,,,,,,,,,,,10.0,79.0,d,m,87,2508.0
0,101,,,,,,,,,,,,,,,,10.0,80.0,g,a,30,3448.0
0,102,,,,,,,,,,,,,,,,1.0,1.0,d,O,73,3222.0
0,102,,,,,,,,,,,,,,,,1.0,2.0,v,S,29,2243.0
0,102,,,,,,,,,,,,,,,,1.0,3.0,y,D,28,2079.0
0,102,,,,,,,,,,,,,,,,1.0,4.0,Y,V,32,2456.0
0,102,,,,,,,,,,,,,,,,1.0,5.0,b,Z,10,5587.0
0,102,,,,,,,,,,,,,,,,1.0,6.0,r,N,74,2684.0
0,102,,,,,,,,,,,,,,,,1.0,7.0,a,F,21,2327.0
0,102,,,,,,,,,,,,,,,,1.0,8.0,g,J,30,2730.0
0,102,,,,,,,,,,,,,,,,1.0,9.0,u,N,65,2741.0
0,102,,,,,,,,,,,,,,,,1.0,10.0,l,R,25,2568.0
0,102,,,,,,,,,,,,,,,,1.0,11.0,l,g,36,2518.0
0,102,,,,,,,,,,,,,,,,1.0,12.0,t,T,72,2014.0
0,102,,,,,,,,,,,,,,,,1.0,13.0,o,a,28,2652.0
0,102,,,,,,,,,,,,,,,,1.0,14.0,l,J,70,4069.0
0,102,,,,,,,,,,,,,,,,1.0,15.0,r,T,72,2210.0
0,102,,,,,,,,,,,,,,,,1.0,16.0,g,l,22,1850.0
0,102,,,,,,,,,,,,,,,,1.0,17.0,o,c,21,3863.0
0,102,,,,,,,,,,,,,,,,1.0,18.0,b,Y,12,3192.0
0,102,,,,,,,,,,,,,,,,1.0,19.0,Y,J,69,2017.0
0,102,,,,,,,,,,,,,,,,1.0,20.0,V,k,32,2045.0
0,102,,,,,,,,,,,,,,,,1.0,21.0,g,B,21,1965.0
0,102,,,,,,,,,,,,,,,,1.0,22.0,g,F,15,1912.0
0,102,,,,,,,,,,,,,,,,1.0,23.0,y,r,6,2999.0
0,102,,,,,,,,,,,,,,,,1.0,24.0,k,E,32,2408.0
0,102,,,,,,,,,,,,,,,,1.0,25.0,c,d,82,3195.0
0,102,,,,,,,,,,,,,,,,1.0,26.0,d,T,0,2754.0
0,102,,,,,,,,,,,,,,,,1.0,27.0,a,O,28,2157.0
0,102,,,,,,,,,,,,,,,,1.0,28.0,t,i,34,4686.0
0,102,,,,,,,,,,,,,,,,1.0,29.0,a,N,27,2984.0
0,102,,,,,,,,,,,,,,,,1.0,30.0,t,Z,63,3446.0
0,102,,,,,,,,,,,,,,,,1.0,31.0,y,h,35,2458.0
0,102,,,,,,,,,,,,,,,,1.0,32.0,d,g,28,2502.0
0,102,,,,,,,,,,,,,,,,1.0,33.0,v,h,69,2902.0
0,102,,,,,,,,,,,,,,,,1.0,34.0,h,u,9,2645.0
0,102,,,,,,,,,,,,,,,,1.0,35.0,c,Y,71,4374.0
0,102,,,,,,,,,,,,,,,,1.0,36.0,U,o,25,3267.0
0,102,,,,,,,,,,,,,,,,1.0,37.0,t,t,100,3097.0
0,102,,,,,,,,,,,,,,,,1.0,38.0,v,k,27,3079.0
0,102,,,,,,,,,,,,,,,,1.0,39.0,Z,m,11,3067.0
0,102,,,,,,,,,,,,,,,,1.0,40.0,V,v,14,4207.0
0,102,,,,,,,,,,,,,,,,1.0,41.0,v,J,89,3017.0
0,102,,,,,,,,,,,,,,,,1.0,42.0,a,a,100,2828.0
0,102,,,,,,,,,,,,,,,,1.0,43.0,h,a,84,2515.0
0,102,,,,,,,,,,,,,,,,1.0,44.0,b,h,13,2741.0
0,102,,,,,,,,,,,,,,,,1.0,45.0,o,H,16,2777.0
0,102,,,,,,,,,,,,,,,,1.0,46.0,y,G,14,2602.0
0,102,,,,,,,,,,,,,,,,1.0,47.0,u,g,15,4041.0
0,102,,,,,,,,,,,,,,,,1.0,48.0,i,H,1,2711.0
0,102,,,,,,,,,,,,,,,,1.0,49.0,r,H,25,2918.0
0,102,,,,,,,,,,,,,,,,1.0,50.0,u,i,28,2635.0
0,102,,,,,,,,,,,,,,,,1.0,51.0,U,U,100,3077.0
0,102,,,,,,,,,,,,,,,,1.0,52.0,l,A,22,2921.0
0,102,,,,,,,,,,,,,,,,1.0,53.0,i,P,26,4525.0
0,102,,,,,,,,,,,,,,,,1.0,54.0,k,Z,28,3022.0
0,102,,,,,,,,,,,,,,,,1.0,55.0,a,A,16,3837.0
0,102,,,,,,,,,,,,,,,,1.0,56.0,c,c,100,3716.0
0,102,,,,,,,,,,,,,,,,1.0,57.0,g,h,20,3298.0
0,102,,,,,,,,,,,,,,,,1.0,58.0,m,g,15,2716.0
0,102,,,,,,,,,,,,,,,,1.0,59.0,l,S,22,3791.0
0,102,,,,,,,,,,,,,,,,1.0,60.0,h,y,20,2688.0
0,102,,,,,,,,,,,,,,,,1.0,61.0,t,U,20,2683.0
0,102,,,,,,,,,,,,,,,,1.0,62.0,k,i,77,3193.0
0,102,,,,,,,,,,,,,,,,1.0,63.0,d,E,18,3482.0
0,102,,,,,,,,,,,,,,,,1.0,64.0,U,V,25,2499.0
0,102,,,,,,,,,,,,,,,,1.0,65.0,y,d,88,2866.0
0,102,,,,,,,,,,,,,,,,1.0,66.0,b,T,18,2439.0
0,102,,,,,,,,,,,,,,,,1.0,67.0,V,L,27,2724.0
0,102,,,,,,,,,,,,,,,,1.0,68.0,Z,V,72,3136.0
0,102,,,,,,,,,,,,,,,,1.0,69.0,Z,R,67,3009.0
0,102,,,,,,,,,,,,,,,,1.0,70.0,U,I,25,3203.0
0,102,,,,,,,,,,,,,,,,1.0,71.0,k,J,22,2555.0
0,102,,,,,,,,,,,,,,,,1.0,72.0,h,F,31,4075.0
0,102,,,,,,,,,,,,,,,,1.0,73.0,a,J,25,2628.0
0,102,,,,,,,,,,,,,,,,1.0,74.0,k,Y,33,2646.0
0,102,,,,,,,,,,,,,,,,1.0,75.0,i,C,27,2731.0
0,102,,,,,,,,,,,,,,,,1.0,76.0,i,F,37,2746.0
0,102,,,,,,,,,,,,,,,,1.0,77.0,U,b,20,6156.0
0,102,,,,,,,,,,,,,,,,1.0,78.0,r,d,20,3412.0
0,102,,,,,,,,,,,,,,,,1.0,79.0,y,S,25,3224.0
0,102,,,,,,,,,,,,,,,,1.0,80.0,a,o,21,2721.0
0,102,,,,,,,,,,,,,,,,2.0,1.0,U,Q,70,3772.0
0,102,,,,,,,,,,,,,,,,2.0,2.0,u,Y,30,4173.0
0,102,,,,,,,,,,,,,,,,2.0,3.0,h,r,27,2465.0
0,102,,,,,,,,,,,,,,,,2.0,4.0,Y,d,91,2114.0
0,102,,,,,,,,,,,,,,,,2.0,5.0,l,H,25,2277.0
0,102,,,,,,,,,,,,,,,,2.0,6.0,Z,L,31,2463.0
0,102,,,,,,,,,,,,,,,,2.0,7.0,m,l,81,2824.0
0,102,,,,,,,,,,,,,,,,2.0,8.0,u,B,27,3069.0
0,102,,,,,,,,,,,,,,,,2.0,9.0,l,t,19,2418.0
0,102,,,,,,,,,,,,,,,,2.0,10.0,y,l,72,2681.0
0,102,,,,,,,,,,,,,,,,2.0,11.0,Y,Q,64,2667.0
0,102,,,,,,,,,,,,,,,,2.0,12.0,c,F,33,2530.0
0,102,,,,,,,,,,,,,,,,2.0,13.0,Y,E,21,2951.0
0,102,,,,,,,,,,,,,,,,2.0,14.0,h,O,28,2776.0
0,102,,,,,,,,,,,,,,,,2.0,15.0,g,P,35,3333.0
0,102,,,,,,,,,,,,,,,,2.0,16.0,y,N,16,3012.0
0,102,,,,,,,,,,,,,,,,2.0,17.0,h,C,27,2435.0
0,102,,,,,,,,,,,,,,,,2.0,18.0,g,O,30,2543.0
0,102,,,,,,,,,,,,,,,,2.0,19.0,i,Z,61,2702.0
0,102,,,,,,,,,,,,,,,,2.0,20.0,Z,c,37,2858.0
0,102,,,,,,,,,,,,,,,,2.0,21.0,g,k,31,3519.0
0,102,,,,,,,,,,,,,,,,2.0,22.0,U,g,71,2791.0
0,102,,,,,,,,,,,,,,,,2.0,23.0,V,S,29,2596.0
0,102,,,,,,,,,,,,,,,,2.0,24.0,c,I,67,3423.0
0,102,,,,,,,,,,,,,,,,2.0,25.0,u,b,28,2728.0
0,102,,,,,,,,,,,,,,,,2.0,26.0,c,T,36,4264.0
0,102,,,,,,,,,,,,,,,,2.0,27.0,l,D,23,2630.0
0,102,,,,,,,,,,,,,,,,2.0,28.0,Y,a,38,2941.0
0,102,,,,,,,,,,,,,,,,2.0,29.0,h,I,79,2684.0
0,102,,,,,,,,,,,,,,,,2.0,30.0,g,G,70,3148.0
0,102,,,,,,,,,,,,,,,,2.0,31.0,d,t,65,2977.0
0,102,,,,,,,,,,,,,,,,2.0,32.0,b,g,38,3662.0
0,102,,,,,,,,,,,,,,,,2.0,33.0,Y,N,91,2656.0
0,102,,,,,,,,,,,,,,,,2.0,34.0,l,d,70,2372.0
0,102,,,,,,,,,,,,,,,,2.0,35.0,m,J,18,2996.0
0,102,,,,,,,,,,,,,,,,2.0,36.0,u,v,63,2983.0
0,102,,,,,,,,,,,,,,,,2.0,37.0,k,P,37,2854.0
0,102,,,,,,,,,,,,,,,,2.0,38.0,r,P,23,2774.0
0,102,,,,,,,,,,,,,,,,2.0,39.0,a,R,35,2341.0
0,102,,,,,,,,,,,,,,,,2.0,40.0,U,J,73,3221.0
0,102,,,,,,,,,,,,,,,,2.0,41.0,Y,I,29,2372.0
0,102,,,,,,,,,,,,,,,,2.0,42.0,c,a,69,3616.0
0,102,,,,,,,,,,,,,,,,2.0,43.0,c,i,27,2357.0
0,102,,,,,,,,,,,,,,,,2.0,44.0,a,k,69,2550.0
0,102,,,,,,,,,,,,,,,,2.0,45.0,b,U,39,2316.0
0,102,,,,,,,,,,,,,,,,2.0,46.0,c,r,74,2845.0
0,102,,,,,,,,,,,,,,,,2.0,47.0,V,G,67,2378.0
0,102,,,,,,,,,,,,,,,,2.0,48.0,m,c,84,2644.0
0,102,,,,,,,,,,,,,,,,2.0,49.0,Y,T,90,2603.0
0,102,,,,,,,,,,,,,,,,2.0,50.0,v,v,100,2964.0
0,102,,,,,,,,,,,,,,,,2.0,51.0,b,c,32,2975.0
0,102,,,,,,,,,,,,,,,,2.0,52.0,l,m,37,2717.0
0,102,,,,,,,,,,,,,,,,2.0,53.0,V,o,25,3210.0
0,102,,,,,,,,,,,,,,,,2.0,54.0,b,A,16,2755.0
0,102,,,,,,,,,,,,,,,,2.0,55.0,l,b,71,2713.0
0,102,,,,,,,,,,,,,,,,2.0,56.0,c,J,36,3496.0
0,102,,,,,,,,,,,,,,,,2.0,57.0,b,a,80,2636.0
0,102,,,,,,,,,,,,,,,,2.0,58.0,Y,H,28,5588.0
0,102,,,,,,,,,,,,,,,,2.0,59.0,v,R,77,3683.0
0,102,,,,,,,,,,,,,,,,2.0,60.0,Z,k,63,4323.0
0,102,,,,,,,,,,,,,,,,2.0,61.0,U,S,75,2499.0
0,102,,,,,,,,,,,,,,,,2.0,62.0,i,r,81,3301.0
0,102,,,,,,,,,,,,,,,,2.0,63.0,u,J,75,3040.0
0,102,,,,,,,,,,,,,,,,2.0,64.0,t,o,71,3902.0
0,102,,,,,,,,,,,,,,,,2.0,65.0,u,O,33,2583.0
0,102,,,,,,,,,,,,,,,,2.0,66.0,l,k,26,2779.0
0,102,,,,,,,,,,,,,,,,2.0,67.0,c,v,34,2854.0
0,102,,,,,,,,,,,,,,,,2.0,68.0,v,Y,72,2617.0
0,102,,,,,,,,,,,,,,,,2.0,69.0,r,v,23,2590.0
0,102,,,,,,,,,,,,,,,,2.0,70.0,y,i,70,2907.0
0,102,,,,,,,,,,,,,,,,2.0,71.0,t,B,28,2278.0
0,102,,,,,,,,,,,,,,,,2.0,72.0,t,u,29,2928.0
0,102,,,,,,,,,,,,,,,,2.0,73.0,U,N,80,2851.0
0,102,,,,,,,,,,,,,,,,2.0,74.0,c,m,86,7771.0
0,102,,,,,,,,,,,,,,,,2.0,75.0,y,R,40,4979.0
0,102,,,,,,,,,,,,,,,,2.0,76.0,y,M,66,2653.0
0,102,,,,,,,,,,,,,,,,2.0,77.0,t,L,20,3761.0
0,102,,,,,,,,,,,,,,,,2.0,78.0,h,P,30,2146.0
0,102,,,,,,,,,,,,,,,,2.0,79.0,o,B,58,2988.0
0,102,,,,,,,,,,,,,,,,2.0,80.0,t,K,26,2317.0
0,102,,,,,,,,,,,,,,,,3.0,1.0,U,O,29,4681.0
0,102,,,,,,,,,,,,,,,,3.0,2.0,Y,B,63,3665.0
0,102,,,,,,,,,,,,,,,,3.0,3.0,u,k,34,2919.0
0,102,,,,,,,,,,,,,,,,3.0,4.0,g,U,66,2916.0
0,102,,,,,,,,,,,,,,,,3.0,5.0,V,u,28,3811.0
0,102,,,,,,,,,,,,,,,,3.0,6.0,r,o,32,2839.0
0,102,,,,,,,,,,,,,,,,3.0,7.0,Z,Z,100,4923.0
0,102,,,,,,,,,,,,,,,,3.0,8.0,b,o,30,2226.0
0,102,,,,,,,,,,,,,,,,3.0,9.0,t,S,31,2312.0
0,102,,,,,,,,,,,,,,,,3.0,10.0,U,l,32,3512.0
0,102,,,,,,,,,,,,,,,,3.0,11.0,a,V,21,3446.0
0,102,,,,,,,,,,,,,,,,3.0,12.0,y,m,94,2829.0
0,102,,,,,,,,,,,,,,,,3.0,13.0,o,Y,66,3074.0
0,102,,,,,,,,,,,,,,,,3.0,14.0,b,I,66,2925.0
0,102,,,,,,,,,,,,,,,,3.0,15.0,l,M,77,3524.0
0,102,,,,,,,,,,,,,,,,3.0,16.0,U,L,36,2453.0
0,102,,,,,,,,,,,,,,,,3.0,17.0,l,o,97,3113.0
0,102,,,,,,,,,,,,,,,,3.0,18.0,t,a,30,2583.0
0,102,,,,,,,,,,,,,,,,3.0,19.0,U,H,29,2749.0
0,102,,,,,,,,,,,,,,,,3.0,20.0,u,T,74,2867.0
0,102,,,,,,,,,,,,,,,,3.0,21.0,c,g,21,2867.0
0,102,,,,,,,,,,,,,,,,3.0,22.0,m,d,87,2729.0
0,102,,,,,,,,,,,,,,,,3.0,23.0,d,b,76,2670.0
0,102,,,,,,,,,,,,,,,,3.0,24.0,t,v,28,3708.0
0,102,,,,,,,,,,,,,,,,3.0,25.0,Z,I,14,2485.0
0,102,,,,,,,,,,,,,,,,3.0,26.0,b,V,68,2881.0
0,102,,,,,,,,,,,,,,,,3.0,27.0,l,I,10,2605.0
0,102,,,,,,,,,,,,,,,,3.0,28.0,r,t,72,4437.0
0,102,,,,,,,,,,,,,,,,3.0,29.0,b,i,85,3289.0
0,102,,,,,,,,,,,,,,,,3.0,30.0,v,l,30,3061.0
0,102,,,,,,,,,,,,,,,,3.0,31.0,y,F,19,2606.0
0,102,,,,,,,,,,,,,,,,3.0,32.0,V,Y,25,2941.0
0,102,,,,,,,,,,,,,,,,3.0,33.0,o,y,24,2856.0
0,102,,,,,,,,,,,,,,,,3.0,34.0,h,v,22,2762.0
0,102,,,,,,,,,,,,,,,,3.0,35.0,l,B,71,3116.0
0,102,,,,,,,,,,,,,,,,3.0,36.0,g,T,27,3510.0
0,102,,,,,,,,,,,,,,,,3.0,37.0,r,R,91,2676.0
0,102,,,,,,,,,,,,,,,,3.0,38.0,m,u,28,3504.0
0,102,,,,,,,,,,,,,,,,3.0,39.0,v,M,85,3595.0
0,102,,,,,,,,,,,,,,,,3.0,40.0,Y,Z,79,3776.0
0,102,,,,,,,,,,,,,,,,3.0,41.0,Y,r,92,2620.0
0,102,,,,,,,,,,,,,,,,3.0,42.0,V,J,28,2877.0
0,102,,,,,,,,,,,,,,,,3.0,43.0,V,y,72,3265.0
0,102,,,,,,,,,,,,,,,,3.0,44.0,k,D,74,2997.0
0,102,,,,,,,,,,,,,,,,3.0,45.0,c,Z,58,4172.0
0,102,,,,,,,,,,,,,,,,3.0,46.0,r,Z,85,3081.0
0,102,,,,,,,,,,,,,,,,3.0,47.0,y,t,31,2858.0
0,102,,,,,,,,,,,,,,,,3.0,48.0,c,M,68,3906.0
0,102,,,,,,,,,,,,,,,,3.0,49.0,o,t,79,3576.0
0,102,,,,,,,,,,,,,,,,3.0,50.0,g,A,31,3832.0
0,102,,,,,,,,,,,,,,,,3.0,51.0,V,B,82,2998.0
0,102,,,,,,,,,,,,,,,,3.0,52.0,h,H,74,4246.0
0,102,,,,,,,,,,,,,,,,3.0,53.0,v,F,34,2691.0
0,102,,,,,,,,,,,,,,,,3.0,54.0,i,K,31,2594.0
0,102,,,,,,,,,,,,,,,,3.0,55.0,u,h,29,2389.0
0,102,,,,,,,,,,,,,,,,3.0,56.0,r,G,74,2903.0
0,102,,,,,,,,,,,,,,,,3.0,57.0,a,u,29,2839.0
0,102,,,,,,,,,,,,,,,,3.0,58.0,c,R,29,2775.0
0,102,,,,,,,,,,,,,,,,3.0,59.0,b,D,27,2730.0
0,102,,,,,,,,,,,,,,,,3.0,60.0,v,o,43,4131.0
0,102,,,,,,,,,,,,,,,,3.0,61.0,a,Y,28,2665.0
0,102,,,,,,,,,,,,,,,,3.0,62.0,y,K,74,2970.0
0,102,,,,,,,,,,,,,,,,3.0,63.0,o,g,69,3518.0
0,102,,,,,,,,,,,,,,,,3.0,64.0,b,S,38,2549.0
0,102,,,,,,,,,,,,,,,,3.0,65.0,v,b,60,3172.0
0,102,,,,,,,,,,,,,,,,3.0,66.0,V,U,66,2215.0
0,102,,,,,,,,,,,,,,,,3.0,67.0,Z,U,90,2719.0
0,102,,,,,,,,,,,,,,,,3.0,68.0,b,y,77,3825.0
0,102,,,,,,,,,,,,,,,,3.0,69.0,y,U,11,3662.0
0,102,,,,,,,,,,,,,,,,3.0,70.0,h,N,20,2624.0
0,102,,,,,,,,,,,,,,,,3.0,71.0,k,I,72,3393.0
0,102,,,,,,,,,,,,,,,,3.0,72.0,c,t,74,3474.0
0,102,,,,,,,,,,,,,,,,3.0,73.0,o,T,31,2654.0
0,102,,,,,,,,,,,,,,,,3.0,74.0,y,y,100,2878.0
0,102,,,,,,,,,,,,,,,,3.0,75.0,c,u,30,2695.0
0,102,,,,,,,,,,,,,,,,3.0,76.0,g,y,29,2246.0
0,102,,,,,,,,,,,,,,,,3.0,77.0,r,D,72,3321.0
0,102,,,,,,,,,,,,,,,,3.0,78.0,m,a,86,3631.0
0,102,,,,,,,,,,,,,,,,3.0,79.0,k,l,31,2560.0
0,102,,,,,,,,,,,,,,,,3.0,80.0,l,K,23,2433.0
0,102,,,,,,,,,,,,,,,,4.0,1.0,V,C,72,3146.0
0,102,,,,,,,,,,,,,,,,4.0,2.0,V,T,66,3086.0
0,102,,,,,,,,,,,,,,,,4.0,3.0,m,C,33,3087.0
0,102,,,,,,,,,,,,,,,,4.0,4.0,i,i,100,3859.0
0,102,,,,,,,,,,,,,,,,4.0,5.0,a,G,64,2494.0
0,102,,,,,,,,,,,,,,,,4.0,6.0,g,Q,71,2088.0
0,102,,,,,,,,,,,,,,,,4.0,7.0,Y,o,65,3063.0
0,102,,,,,,,,,,,,,,,,4.0,8.0,r,u,65,2490.0
0,102,,,,,,,,,,,,,,,,4.0,9.0,o,K,42,2192.0
0,102,,,,,,,,,,,,,,,,4.0,10.0,c,U,34,2559.0
0,102,,,,,,,,,,,,,,,,4.0,11.0,Y,Y,100,3480.0
0,102,,,,,,,,,,,,,,,,4.0,12.0,Y,G,82,2350.0
0,102,,,,,,,,,,,,,,,,4.0,13.0,Y,P,69,5044.0
0,102,,,,,,,,,,,,,,,,4.0,14.0,Z,M,67,3551.0
0,102,,,,,,,,,,,,,,,,4.0,15.0,g,L,36,2619.0
0,102,,,,,,,,,,,,,,,,4.0,16.0,o,J,29,3318.0
0,102,,,,,,,,,,,,,,,,4.0,17.0,a,L,79,3089.0
0,102,,,,,,,,,,,,,,,,4.0,18.0,V,I,37,5089.0
0,102,,,,,,,,,,,,,,,,4.0,19.0,u,S,68,2415.0
0,102,,,,,,,,,,,,,,,,4.0,20.0,d,C,33,3138.0
0,102,,,,,,,,,,,,,,,,4.0,21.0,V,M,85,2666.0
0,102,,,,,,,,,,,,,,,,4.0,22.0,b,k,66,3216.0
0,102,,,,,,,,,,,,,,,,4.0,23.0,l,U,75,3012.0
0,102,,,,,,,,,,,,,,,,4.0,24.0,o,r,68,2340.0
0,102,,,,,,,,,,,,,,,,4.0,25.0,a,c,75,2392.0
0,102,,,,,,,,,,,,,,,,4.0,26.0,h,S,36,4304.0
0,102,,,,,,,,,,,,,,,,4.0,27.0,y,Q,24,3329.0
0,102,,,,,,,,,,,,,,,,4.0,28.0,V,N,73,4155.0
0,102,,,,,,,,,,,,,,,,4.0,29.0,i,o,32,2617.0
0,102,,,,,,,,,,,,,,,,4.0,30.0,Y,c,76,2311.0
0,102,,,,,,,,,,,,,,,,4.0,31.0,c,o,35,2846.0
0,102,,,,,,,,,,,,,,,,4.0,32.0,b,M,87,2625.0
0,102,,,,,,,,,,,,,,,,4.0,33.0,y,Y,67,3662.0
0,102,,,,,,,,,,,,,,,,4.0,34.0,d,c,85,2782.0
0,102,,,,,,,,,,,,,,,,4.0,35.0,l,y,41,2614.0
0,102,,,,,,,,,,,,,,,,4.0,36.0,i,l,34,2232.0
0,102,,,,,,,,,,,,,,,,4.0,37.0,g,Z,34,2371.0
0,102,,,,,,,,,,,,,,,,4.0,38.0,m,A,23,2639.0
0,102,,,,,,,,,,,,,,,,4.0,39.0,Y,U,91,2680.0
0,102,,,,,,,,,,,,,,,,4.0,40.0,y,E,70,2560.0
0,102,,,,,,,,,,,,,,,,4.0,41.0,y,Z,29,2872.0
0,102,,,,,,,,,,,,,,,,4.0,42.0,t,Y,64,2752.0
0,102,,,,,,,,,,,,,,,,4.0,43.0,m,O,89,3104.0
0,102,,,,,,,,,,,,,,,,4.0,44.0,h,t,35,3122.0
0,102,,,,,,,,,,,,,,,,4.0,45.0,l,F,32,2773.0
0,102,,,,,,,,,,,,,,,,4.0,46.0,b,P,76,2683.0
0,102,,,,,,,,,,,,,,,,4.0,47.0,o,V,78,2676.0
0,102,,,,,,,,,,,,,,,,4.0,48.0,h,b,69,2589.0
0,102,,,,,,,,,,,,,,,,4.0,49.0,h,T,33,2886.0
0,102,,,,,,,,,,,,,,,,4.0,50.0,v,A,26,3117.0
0,102,,,,,,,,,,,,,,,,4.0,51.0,r,y,27,2780.0
0,102,,,,,,,,,,,,,,,,4.0,52.0,d,P,86,2805.0
0,102,,,,,,,,,,,,,,,,4.0,53.0,V,m,68,4338.0
0,102,,,,,,,,,,,,,,,,4.0,54.0,V,O,32,3086.0
0,102,,,,,,,,,,,,,,,,4.0,55.0,Y,R,88,2624.0
0,102,,,,,,,,,,,,,,,,4.0,56.0,h,D,37,3045.0
0,102,,,,,,,,,,,,,,,,4.0,57.0,b,K,23,2384.0
0,102,,,,,,,,,,,,,,,,4.0,58.0,y,g,32,2980.0
0,102,,,,,,,,,,,,,,,,4.0,59.0,v,L,30,2668.0
0,102,,,,,,,,,,,,,,,,4.0,60.0,c,A,22,2683.0
0,102,,,,,,,,,,,,,,,,4.0,61.0,g,d,65,3609.0
0,102,,,,,,,,,,,,,,,,4.0,62.0,U,d,29,2608.0
0,102,,,,,,,,,,,,,,,,4.0,63.0,h,o,34,2624.0
0,102,,,,,,,,,,,,,,,,4.0,64.0,m,S,32,3996.0
0,102,,,,,,,,,,,,,,,,4.0,65.0,Z,g,28,2633.0
0,102,,,,,,,,,,,,,,,,4.0,66.0,y,B,63,2914.0
0,102,,,,,,,,,,,,,,,,4.0,67.0,Z,a,32,2952.0
0,102,,,,,,,,,,,,,,,,4.0,68.0,u,m,21,3006.0
0,102,,,,,,,,,,,,,,,,4.0,69.0,m,k,27,2906.0
0,102,,,,,,,,,,,,,,,,4.0,70.0,y,L,84,2704.0
0,102,,,,,,,,,,,,,,,,4.0,71.0,g,r,69,2637.0
0,102,,,,,,,,,,,,,,,,4.0,72.0,k,d,34,2946.0
0,102,,,,,,,,,,,,,,,,4.0,73.0,u,c,38,2357.0
0,102,,,,,,,,,,,,,,,,4.0,74.0,o,o,100,2609.0
0,102,,,,,,,,,,,,,,,,4.0,75.0,Z,D,75,2425.0
0,102,,,,,,,,,,,,,,,,4.0,76.0,Z,v,33,2278.0
0,102,,,,,,,,,,,,,,,,4.0,77.0,v,Q,31,2952.0
0,102,,,,,,,,,,,,,,,,4.0,78.0,r,h,21,2944.0
0,102,,,,,,,,,,,,,,,,4.0,79.0,r,a,29,3507.0
0,102,,,,,,,,,,,,,,,,4.0,80.0,t,E,19,2911.0
0,102,,,,,,,,,,,,,,,,5.0,1.0,b,L,58,3530.0
0,102,,,,,,,,,,,,,,,,5.0,2.0,u,G,72,2926.0
0,102,,,,,,,,,,,,,,,,5.0,3.0,i,y,38,2257.0
0,102,,,,,,,,,,,,,,,,5.0,4.0,a,H,29,3169.0
0,102,,,,,,,,,,,,,,,,5.0,5.0,V,h,33,3340.0
0,102,,,,,,,,,,,,,,,,5.0,6.0,b,R,17,2553.0
0,102,,,,,,,,,,,,,,,,5.0,7.0,m,V,27,2960.0
0,102,,,,,,,,,,,,,,,,5.0,8.0,b,B,82,2420.0
0,102,,,,,,,,,,,,,,,,5.0,9.0,Z,i,29,2409.0
0,102,,,,,,,,,,,,,,,,5.0,10.0,c,V,30,2515.0
0,102,,,,,,,,,,,,,,,,5.0,11.0,h,g,33,2780.0
0,102,,,,,,,,,,,,,,,,5.0,12.0,m,K,90,2545.0
0,102,,,,,,,,,,,,,,,,5.0,13.0,l,Z,71,2581.0
0,102,,,,,,,,,,,,,,,,5.0,14.0,t,r,35,3359.0
0,102,,,,,,,,,,,,,,,,5.0,15.0,d,o,72,2692.0
0,102,,,,,,,,,,,,,,,,5.0,16.0,b,r,27,3765.0
0,102,,,,,,,,,,,,,,,,5.0,17.0,d,G,71,3251.0
0,102,,,,,,,,,,,,,,,,5.0,18.0,c,G,36,3259.0
0,102,,,,,,,,,,,,,,,,5.0,19.0,r,r,100,3001.0
0,102,,,,,,,,,,,,,,,,5.0,20.0,g,V,69,2729.0
0,102,,,,,,,,,,,,,,,,5.0,21.0,u,H,28,3762.0
0,102,,,,,,,,,,,,,,,,5.0,22.0,a,b,84,2710.0
0,102,,,,,,,,,,,,,,,,5.0,23.0,c,y,79,2912.0
0,102,,,,,,,,,,,,,,,,5.0,24.0,U,c,27,2794.0
0,102,,,,,,,,,,,,,,,,5.0,25.0,v,u,88,3415.0
0,102,,,,,,,,,,,,,,,,5.0,26.0,a,m,77,2357.0
0,102,,,,,,,,,,,,,,,,5.0,27.0,Z,O,31,3488.0
0,102,,,,,,,,,,,,,,,,5.0,28.0,h,Z,24,2984.0
0,102,,,,,,,,,,,,,,,,5.0,29.0,Y,A,23,2464.0
0,102,,,,,,,,,,,,,,,,5.0,30.0,t,R,77,3069.0
0,102,,,,,,,,,,,,,,,,5.0,31.0,u,r,76,2691.0
0,102,,,,,,,,,,,,,,,,5.0,32.0,i,A,22,2416.0
0,102,,,,,,,,,,,,,,,,5.0,33.0,r,F,87,2655.0
0,102,,,,,,,,,,,,,,,,5.0,34.0,v,V,30,2656.0
0,102,,,,,,,,,,,,,,,,5.0,35.0,h,L,75,2719.0
0,102,,,,,,,,,,,,,,,,5.0,36.0,V,b,73,2511.0
0,102,,,,,,,,,,,,,,,,5.0,37.0,r,M,88,2785.0
0,102,,,,,,,,,,,,,,,,5.0,38.0,h,i,30,2486.0
0,102,,,,,,,,,,,,,,,,5.0,39.0,u,F,12,2543.0
0,102,,,,,,,,,,,,,,,,5.0,40.0,Z,G,26,2630.0
0,102,,,,,,,,,,,,,,,,5.0,41.0,h,Y,22,2417.0
0,102,,,,,,,,,,,,,,,,5.0,42.0,c,N,17,2657.0
0,102,,,,,,,,,,,,,,,,5.0,43.0,Z,y,25,3843.0
0,102,,,,,,,,,,,,,,,,5.0,44.0,r,E,28,2447.0
0,102,,,,,,,,,,,,,,,,5.0,45.0,Z,T,73,2715.0
0,102,,,,,,,,,,,,,,,,5.0,46.0,r,c,30,2822.0
0,102,,,,,,,,,,,,,,,,5.0,47.0,i,Y,26,3606.0
0,102,,,,,,,,,,,,,,,,5.0,48.0,a,h,87,3445.0
0,102,,,,,,,,,,,,,,,,5.0,49.0,i,t,66,3418.0
0,102,,,,,,,,,,,,,,,,5.0,50.0,V,E,36,3178.0
0,102,,,,,,,,,,,,,,,,5.0,51.0,b,d,18,3461.0
0,102,,,,,,,,,,,,,,,,5.0,52.0,v,Z,33,2951.0
0,102,,,,,,,,,,,,,,,,5.0,53.0,Z,Y,66,2955.0
0,102,,,,,,,,,,,,,,,,5.0,54.0,v,I,65,2606.0
0,102,,,,,,,,,,,,,,,,5.0,55.0,l,a,28,3181.0
0,102,,,,,,,,,,,,,,,,5.0,56.0,u,a,32,4827.0
0,102,,,,,,,,,,,,,,,,5.0,57.0,Z,o,63,3380.0
0,102,,,,,,,,,,,,,,,,5.0,58.0,v,T,37,2439.0
0,102,,,,,,,,,,,,,,,,5.0,59.0,u,Q,71,2546.0
0,102,,,,,,,,,,,,,,,,5.0,60.0,V,V,100,5906.0
0,102,,,,,,,,,,,,,,,,5.0,61.0,d,S,22,2408.0
0,102,,,,,,,,,,,,,,,,5.0,62.0,o,h,25,2604.0
0,102,,,,,,,,,,,,,,,,5.0,63.0,v,G,84,2594.0
0,102,,,,,,,,,,,,,,,,5.0,64.0,h,V,28,2686.0
0,102,,,,,,,,,,,,,,,,5.0,65.0,d,Q,70,2740.0
0,102,,,,,,,,,,,,,,,,5.0,66.0,t,D,67,3031.0
0,102,,,,,,,,,,,,,,,,5.0,67.0,a,U,66,2312.0
0,102,,,,,,,,,,,,,,,,5.0,68.0,b,u,30,2862.0
0,102,,,,,,,,,,,,,,,,5.0,69.0,l,l,100,3966.0
0,102,,,,,,,,,,,,,,,,5.0,70.0,u,I,23,2624.0
0,102,,,,,,,,,,,,,,,,5.0,71.0,U,R,85,2543.0
0,102,,,,,,,,,,,,,,,,5.0,72.0,k,b,75,2916.0
0,102,,,,,,,,,,,,,,,,5.0,73.0,y,a,61,5380.0
0,102,,,,,,,,,,,,,,,,5.0,74.0,c,L,80,2602.0
0,102,,,,,,,,,,,,,,,,5.0,75.0,r,g,28,3012.0
0,102,,,,,,,,,,,,,,,,5.0,76.0,b,N,28,2686.0
0,102,,,,,,,,,,,,,,,,5.0,77.0,d,k,34,3840.0
0,102,,,,,,,,,,,,,,,,5.0,78.0,d,i,28,2898.0
0,102,,,,,,,,,,,,,,,,5.0,79.0,g,D,33,3374.0
0,102,,,,,,,,,,,,,,,,5.0,80.0,o,E,25,2901.0
0,102,,,,,,,,,,,,,,,,6.0,1.0,d,I,38,3595.0
0,102,,,,,,,,,,,,,,,,6.0,2.0,U,A,26,2666.0
0,102,,,,,,,,,,,,,,,,6.0,3.0,u,C,65,2488.0
0,102,,,,,,,,,,,,,,,,6.0,4.0,h,Q,28,2379.0
0,102,,,,,,,,,,,,,,,,6.0,5.0,k,M,80,3447.0
0,102,,,,,,,,,,,,,,,,6.0,6.0,d,l,80,3205.0
0,102,,,,,,,,,,,,,,,,6.0,7.0,i,V,35,4207.0
0,102,,,,,,,,,,,,,,,,6.0,8.0,h,d,35,4609.0
0,102,,,,,,,,,,,,,,,,6.0,9.0,k,y,39,3204.0
0,102,,,,,,,,,,,,,,,,6.0,10.0,U,i,34,3300.0
0,102,,,,,,,,,,,,,,,,6.0,11.0,u,D,34,2356.0
0,102,,,,,,,,,,,,,,,,6.0,12.0,Z,l,25,2498.0
0,102,,,,,,,,,,,,,,,,6.0,13.0,r,b,29,2742.0
0,102,,,,,,,,,,,,,,,,6.0,14.0,U,m,33,2443.0
0,102,,,,,,,,,,,,,,,,6.0,15.0,v,C,21,2329.0
0,102,,,,,,,,,,,,,,,,6.0,16.0,b,Q,24,2611.0
0,102,,,,,,,,,,,,,,,,6.0,17.0,u,R,79,2156.0
0,102,,,,,,,,,,,,,,,,6.0,18.0,t,A,33,2450.0
0,102,,,,,,,,,,,,,,,,6.0,19.0,t,y,29,2566.0
0,102,,,,,,,,,,,,,,,,6.0,20.0,k,U,20,2488.0
0,102,,,,,,,,,,,,,,,,6.0,21.0,m,D,29,2509.0
0,102,,,,,,,,,,,,,,,,6.0,22.0,r,i,64,2940.0
0,102,,,,,,,,,,,,,,,,6.0,23.0,k,N,39,2508.0
0,102,,,,,,,,,,,,,,,,6.0,24.0,i,k,78,2517.0
0,102,,,,,,,,,,,,,,,,6.0,25.0,a,i,33,2287.0
0,102,,,,,,,,,,,,,,,,6.0,26.0,m,B,79,2876.0
0,102,,,,,,,,,,,,,,,,6.0,27.0,m,h,63,3086.0
0,102,,,,,,,,,,,,,,,,6.0,28.0,o,D,35,3422.0
0,102,,,,,,,,,,,,,,,,6.0,29.0,Z,H,32,2724.0
0,102,,,,,,,,,,,,,,,,6.0,30.0,d,B,68,2533.0
0,102,,,,,,,,,,,,,,,,6.0,31.0,k,v,31,6254.0
0,102,,,,,,,,,,,,,,,,6.0,32.0,g,m,30,2673.0
0,102,,,,,,,,,,,,,,,,6.0,33.0,h,E,26,3034.0
0,102,,,,,,,,,,,,,,,,6.0,34.0,U,r,33,2827.0
0,102,,,,,,,,,,,,,,,,6.0,35.0,g,C,68,2778.0
0,102,,,,,,,,,,,,,,,,6.0,36.0,r,O,28,3224.0
0,102,,,,,,,,,,,,,,,,6.0,37.0,a,B,28,3069.0
0,102,,,,,,,,,,,,,,,,6.0,38.0,d,M,70,3409.0
0,102,,,,,,,,,,,,,,,,6.0,39.0,Z,Q,86,2500.0
0,102,,,,,,,,,,,,,,,,6.0,40.0,i,O,72,5918.0
0,102,,,,,,,,,,,,,,,,6.0,41.0,V,a,32,4624.0
0,102,,,,,,,,,,,,,,,,6.0,42.0,k,u,28,2592.0
0,102,,,,,,,,,,,,,,,,6.0,43.0,d,A,27,2200.0
0,102,,,,,,,,,,,,,,,,6.0,44.0,m,M,76,2499.0
0,102,,,,,,,,,,,,,,,,6.0,45.0,o,G,30,3455.0
0,102,,,,,,,,,,,,,,,,6.0,46.0,u,V,24,2753.0
0,102,,,,,,,,,,,,,,,,6.0,47.0,U,P,33,2758.0
0,102,,,,,,,,,,,,,,,,6.0,48.0,v,K,22,2543.0
0,102,,,,,,,,,,,,,,,,6.0,49.0,t,C,74,2451.0
0,102,,,,,,,,,,,,,,,,6.0,50.0,a,I,33,2279.0
0,102,,,,,,,,,,,,,,,,6.0,51.0,c,B,31,2810.0
0,102,,,,,,,,,,,,,,,,6.0,52.0,g,N,36,3071.0
0,102,,,,,,,,,,,,,,,,6.0,53.0,i,a,27,2670.0
0,102,,,,,,,,,,,,,,,,6.0,54.0,r,Q,67,2720.0
0,102,,,,,,,,,,,,,,,,6.0,55.0,a,v,35,3045.0
0,102,,,,,,,,,,,,,,,,6.0,56.0,g,o,31,2478.0
0,102,,,,,,,,,,,,,,,,6.0,57.0,U,a,35,2606.0
0,102,,,,,,,,,,,,,,,,6.0,58.0,u,u,100,3253.0
0,102,,,,,,,,,,,,,,,,6.0,59.0,l,Q,35,2570.0
0,102,,,,,,,,,,,,,,,,6.0,60.0,m,y,68,2836.0
0,102,,,,,,,,,,,,,,,,6.0,61.0,d,a,31,2107.0
0,102,,,,,,,,,,,,,,,,6.0,62.0,v,c,67,3778.0
0,102,,,,,,,,,,,,,,,,6.0,63.0,t,d,78,3117.0
0,102,,,,,,,,,,,,,,,,6.0,64.0,o,O,35,2753.0
0,102,,,,,,,,,,,,,,,,6.0,65.0,Z,h,33,2680.0
0,102,,,,,,,,,,,,,,,,6.0,66.0,l,i,23,2484.0
0,102,,,,,,,,,,,,,,,,6.0,67.0,Y,L,37,2683.0
0,102,,,,,,,,,,,,,,,,6.0,68.0,v,P,71,5689.0
0,102,,,,,,,,,,,,,,,,6.0,69.0,t,F,33,9231.0
0,102,,,,,,,,,,,,,,,,6.0,70.0,v,B,34,2312.0
0,102,,,,,,,,,,,,,,,,6.0,71.0,k,H,30,2263.0
0,102,,,,,,,,,,,,,,,,6.0,72.0,o,v,36,2114.0
0,102,,,,,,,,,,,,,,,,6.0,73.0,i,u,63,2276.0
0,102,,,,,,,,,,,,,,,,6.0,74.0,h,l,69,2861.0
0,102,,,,,,,,,,,,,,,,6.0,75.0,v,m,83,3605.0
0,102,,,,,,,,,,,,,,,,6.0,76.0,o,d,70,2651.0
0,102,,,,,,,,,,,,,,,,6.0,77.0,k,h,36,2744.0
0,102,,,,,,,,,,,,,,,,6.0,78.0,g,M,83,3015.0
0,102,,,,,,,,,,,,,,,,6.0,79.0,U,Z,77,2594.0
0,102,,,,,,,,,,,,,,,,6.0,80.0,k,m,74,2469.0
0,102,,,,,,,,,,,,,,,,7.0,1.0,V,d,33,3791.0
0,102,,,,,,,,,,,,,,,,7.0,2.0,d,H,24,3356.0
0,102,,,,,,,,,,,,,,,,7.0,3.0,o,P,30,2857.0
0,102,,,,,,,,,,,,,,,,7.0,4.0,U,B,38,2748.0
0,102,,,,,,,,,,,,,,,,7.0,5.0,k,g,32,3225.0
0,102,,,,,,,,,,,,,,,,7.0,6.0,d,v,66,3040.0
0,102,,,,,,,,,,,,,,,,7.0,7.0,g,t,30,2784.0
0,102,,,,,,,,,,,,,,,,7.0,8.0,u,E,20,2471.0
0,102,,,,,,,,,,,,,,,,7.0,9.0,g,S,34,2491.0
0,102,,,,,,,,,,,,,,,,7.0,10.0,g,K,58,3202.0
0,102,,,,,,,,,,,,,,,,7.0,11.0,V,Q,34,2425.0
0,102,,,,,,,,,,,,,,,,7.0,12.0,m,b,65,7495.0
0,102,,,,,,,,,,,,,,,,7.0,13.0,Y,h,33,4070.0
0,102,,,,,,,,,,,,,,,,7.0,14.0,i,S,21,2995.0
0,102,,,,,,,,,,,,,,,,7.0,15.0,v,d,68,3069.0
0,102,,,,,,,,,,,,,,,,7.0,16.0,a,y,35,2470.0
0,102,,,,,,,,,,,,,,,,7.0,17.0,a,r,30,2795.0
0,102,,,,,,,,,,,,,,,,7.0,18.0,a,E,66,2921.0
0,102,,,,,,,,,,,,,,,,7.0,19.0,b,t,29,2531.0
0,102,,,,,,,,,,,,,,,,7.0,20.0,c,Q,24,2589.0
0,102,,,,,,,,,,,,,,,,7.0,21.0,U,h,20,2711.0
0,102,,,,,,,,,,,,,,,,7.0,22.0,y,b,66,2548.0
0,102,,,,,,,,,,,,,,,,7.0,23.0,m,F,66,3111.0
0,102,,,,,,,,,,,,,,,,7.0,24.0,a,Z,35,2770.0
0,102,,,,,,,,,,,,,,,,7.0,25.0,y,O,70,3109.0
0,102,,,,,,,,,,,,,,,,7.0,26.0,d,r,65,2884.0
0,102,,,,,,,,,,,,,,,,7.0,27.0,h,J,31,4073.0
0,102,,,,,,,,,,,,,,,,7.0,28.0,o,C,22,3174.0
0,102,,,,,,,,,,,,,,,,7.0,29.0,r,L,29,3677.0
0,102,,,,,,,,,,,,,,,,7.0,30.0,m,T,28,2645.0
0,102,,,,,,,,,,,,,,,,7.0,31.0,c,P,22,2844.0
0,102,,,,,,,,,,,,,,,,7.0,32.0,v,D,34,3067.0
0,102,,,,,,,,,,,,,,,,7.0,33.0,k,F,67,2625.0
0,102,,,,,,,,,,,,,,,,7.0,34.0,t,J,70,2746.0
0,102,,,,,,,,,,,,,,,,7.0,35.0,h,h,100,4617.0
0,102,,,,,,,,,,,,,,,,7.0,36.0,c,b,36,2483.0
0,102,,,,,,,,,,,,,,,,7.0,37.0,m,R,26,2385.0
0,102,,,,,,,,,,,,,,,,7.0,38.0,o,N,69,3051.0
0,102,,,,,,,,,,,,,,,,7.0,39.0,i,b,68,2783.0
0,102,,,,,,,,,,,,,,,,7.0,40.0,i,R,36,3653.0
0,102,,,,,,,,,,,,,,,,7.0,41.0,V,r,35,3785.0
0,102,,,,,,,,,,,,,,,,7.0,42.0,u,o,30,2645.0
0,102,,,,,,,,,,,,,,,,7.0,43.0,u,U,29,2467.0
0,102,,,,,,,,,,,,,,,,7.0,44.0,i,N,17,2430.0
0,102,,,,,,,,,,,,,,,,7.0,45.0,o,Q,62,2505.0
0,102,,,,,,,,,,,,,,,,7.0,46.0,g,E,26,2436.0
0,102,,,,,,,,,,,,,,,,7.0,47.0,V,K,92,3378.0
0,102,,,,,,,,,,,,,,,,7.0,48.0,t,P,64,2955.0
0,102,,,,,,,,,,,,,,,,7.0,49.0,l,T,32,3052.0
0,102,,,,,,,,,,,,,,,,7.0,50.0,v,E,69,2371.0
0,102,,,,,,,,,,,,,,,,7.0,51.0,l,Y,31,2963.0
0,102,,,,,,,,,,,,,,,,7.0,52.0,V,P,83,2709.0
0,102,,,,,,,,,,,,,,,,7.0,53.0,h,M,69,2700.0
0,102,,,,,,,,,,,,,,,,7.0,54.0,t,G,78,2093.0
0,102,,,,,,,,,,,,,,,,7.0,55.0,a,D,34,2157.0
0,102,,,,,,,,,,,,,,,,7.0,56.0,h,A,25,3715.0
0,102,,,,,,,,,,,,,,,,7.0,57.0,b,m,34,2397.0
0,102,,,,,,,,,,,,,,,,7.0,58.0,g,u,25,2406.0
0,102,,,,,,,,,,,,,,,,7.0,59.0,b,C,32,2745.0
0,102,,,,,,,,,,,,,,,,7.0,60.0,r,U,78,2976.0
0,102,,,,,,,,,,,,,,,,7.0,61.0,d,F,34,3007.0
0,102,,,,,,,,,,,,,,,,7.0,62.0,a,M,30,2342.0
0,102,,,,,,,,,,,,,,,,7.0,63.0,Z,K,28,2327.0
0,102,,,,,,,,,,,,,,,,7.0,64.0,r,V,72,2589.0
0,102,,,,,,,,,,,,,,,,7.0,65.0,y,o,31,2500.0
0,102,,,,,,,,,,,,,,,,7.0,66.0,v,O,30,2450.0
0,102,,,,,,,,,,,,,,,,7.0,67.0,t,I,34,2139.0
0,102,,,,,,,,,,,,,,,,7.0,68.0,Y,i,21,2574.0
0,102,,,,,,,,,,,,,,,,7.0,69.0,d,u,70,2773.0
0,102,,,,,,,,,,,,,,,,7.0,70.0,y,u,29,2360.0
0,102,,,,,,,,,,,,,,,,7.0,71.0,a,C,22,2934.0
0,102,,,,,,,,,,,,,,,,7.0,72.0,U,Y,85,2511.0
0,102,,,,,,,,,,,,,,,,7.0,73.0,b,O,72,2563.0
0,102,,,,,,,,,,,,,,,,7.0,74.0,d,L,86,2856.0
0,102,,,,,,,,,,,,,,,,7.0,75.0,a,K,32,2557.0
0,102,,,,,,,,,,,,,,,,7.0,76.0,Z,E,17,2330.0
0,102,,,,,,,,,,,,,,,,7.0,77.0,Z,b,26,2792.0
0,102,,,,,,,,,,,,,,,,7.0,78.0,h,c,26,2858.0
0,102,,,,,,,,,,,,,,,,7.0,79.0,u,Z,29,2160.0
0,102,,,,,,,,,,,,,,,,7.0,80.0,d,U,28,2934.0
0,102,,,,,,,,,,,,,,,,8.0,1.0,y,V,73,3442.0
0,102,,,,,,,,,,,,,,,,8.0,2.0,k,Q,68,3540.0
0,102,,,,,,,,,,,,,,,,8.0,3.0,V,i,65,4106.0
0,102,,,,,,,,,,,,,,,,8.0,4.0,o,u,36,3435.0
0,102,,,,,,,,,,,,,,,,8.0,5.0,U,K,40,3525.0
0,102,,,,,,,,,,,,,,,,8.0,6.0,t,O,27,2903.0
0,102,,,,,,,,,,,,,,,,8.0,7.0,r,C,33,2172.0
0,102,,,,,,,,,,,,,,,,8.0,8.0,i,I,34,2164.0
0,102,,,,,,,,,,,,,,,,8.0,9.0,Z,u,71,2515.0
0,102,,,,,,,,,,,,,,,,8.0,10.0,v,r,28,2227.0
0,102,,,,,,,,,,,,,,,,8.0,11.0,m,v,37,2514.0
0,102,,,,,,,,,,,,,,,,8.0,12.0,y,P,33,2807.0
0,102,,,,,,,,,,,,,,,,8.0,13.0,u,L,26,2501.0
0,102,,,,,,,,,,,,,,,,8.0,14.0,Z,r,75,2623.0
0,102,,,,,,,,,,,,,,,,8.0,15.0,g,c,36,2411.0
0,102,,,,,,,,,,,,,,,,8.0,16.0,i,h,26,2608.0
0,102,,,,,,,,,,,,,,,,8.0,17.0,m,Y,19,2620.0
0,102,,,,,,,,,,,,,,,,8.0,18.0,o,i,22,2313.0
0,102,,,,,,,,,,,,,,,,8.0,19.0,m,U,29,2540.0
0,102,,,,,,,,,,,,,,,,8.0,20.0,d,h,26,2416.0
0,102,,,,,,,,,,,,,,,,8.0,21.0,h,B,24,2531.0
0,102,,,,,,,,,,,,,,,,8.0,22.0,v,H,24,2677.0
0,102,,,,,,,,,,,,,,,,8.0,23.0,o,I,33,2952.0
0,102,,,,,,,,,,,,,,,,8.0,24.0,V,A,21,3593.0
0,102,,,,,,,,,,,,,,,,8.0,25.0,l,E,26,2430.0
0,102,,,,,,,,,,,,,,,,8.0,26.0,V,D,67,4352.0
0,102,,,,,,,,,,,,,,,,8.0,27.0,V,R,68,3246.0
0,102,,,,,,,,,,,,,,,,8.0,28.0,Y,k,33,2265.0
0,102,,,,,,,,,,,,,,,,8.0,29.0,m,Z,12,3684.0
0,102,,,,,,,,,,,,,,,,8.0,30.0,l,h,28,2483.0
0,102,,,,,,,,,,,,,,,,8.0,31.0,i,c,32,3210.0
0,102,,,,,,,,,,,,,,,,8.0,32.0,m,G,18,2606.0
0,102,,,,,,,,,,,,,,,,8.0,33.0,u,K,24,3214.0
0,102,,,,,,,,,,,,,,,,8.0,34.0,o,l,91,3445.0
0,102,,,,,,,,,,,,,,,,8.0,35.0,i,B,35,3202.0
0,102,,,,,,,,,,,,,,,,8.0,36.0,k,O,89,2667.0
0,102,,,,,,,,,,,,,,,,8.0,37.0,V,H,70,2341.0
0,102,,,,,,,,,,,,,,,,8.0,38.0,c,E,34,2791.0
0,102,,,,,,,,,,,,,,,,8.0,39.0,Y,y,74,2763.0
0,102,,,,,,,,,,,,,,,,8.0,40.0,a,g,29,2398.0
0,102,,,,,,,,,,,,,,,,8.0,41.0,t,m,27,2495.0
0,102,,,,,,,,,,,,,,,,8.0,42.0,c,h,31,2653.0
0,102,,,,,,,,,,,,,,,,8.0,43.0,o,F,67,3267.0
0,102,,,,,,,,,,,,,,,,8.0,44.0,Y,l,65,2605.0
0,102,,,,,,,,,,,,,,,,8.0,45.0,o,m,25,2540.0
0,102,,,,,,,,,,,,,,,,8.0,46.0,v,t,74,2775.0
0,102,,,,,,,,,,,,,,,,8.0,47.0,k,a,64,2532.0
0,102,,,,,,,,,,,,,,,,8.0,48.0,h,U,33,2344.0
0,102,,,,,,,,,,,,,,,,8.0,49.0,Z,J,27,2935.0
0,102,,,,,,,,,,,,,,,,8.0,50.0,Z,C,67,2892.0
0,102,,,,,,,,,,,,,,,,8.0,51.0,d,R,73,4111.0
0,102,,,,,,,,,,,,,,,,8.0,52.0,m,Q,32,2652.0
0,102,,,,,,,,,,,,,,,,8.0,53.0,k,C,29,2177.0
0,102,,,,,,,,,,,,,,,,8.0,54.0,Y,v,32,2351.0
0,102,,,,,,,,,,,,,,,,8.0,55.0,Z,A,26,2420.0
0,102,,,,,,,,,,,,,,,,8.0,56.0,Y,M,69,3240.0
0,102,,,,,,,,,,,,,,,,8.0,57.0,l,O,27,2527.0
0,102,,,,,,,,,,,,,,,,8.0,58.0,V,Z,71,3308.0
0,102,,,,,,,,,,,,,,,,8.0,59.0,g,g,100,2734.0
0,102,,,,,,,,,,,,,,,,8.0,60.0,l,V,73,3357.0
0,102,,,,,,,,,,,,,,,,8.0,61.0,Y,K,24,2715.0
0,102,,,,,,,,,,,,,,,,8.0,62.0,U,M,70,2913.0
0,102,,,,,,,,,,,,,,,,8.0,63.0,v,U,69,2840.0
0,102,,,,,,,,,,,,,,,,8.0,64.0,Y,t,67,2583.0
0,102,,,,,,,,,,,,,,,,8.0,65.0,u,A,24,2642.0
0,102,,,,,,,,,,,,,,,,8.0,66.0,o,Z,71,2312.0
0,102,,,,,,,,,,,,,,,,8.0,67.0,u,y,26,2293.0
0,102,,,,,,,,,,,,,,,,8.0,68.0,U,E,8,2654.0
0,102,,,,,,,,,,,,,,,,8.0,69.0,d,V,69,2593.0
0,102,,,,,,,,,,,,,,,,8.0,70.0,b,J,31,2251.0
0,102,,,,,,,,,,,,,,,,8.0,71.0,d,J,69,2573.0
0,102,,,,,,,,,,,,,,,,8.0,72.0,v,i,35,2371.0
0,102,,,,,,,,,,,,,,,,8.0,73.0,u,l,27,3577.0
0,102,,,,,,,,,,,,,,,,8.0,74.0,U,t,21,3242.0
0,102,,,,,,,,,,,,,,,,8.0,75.0,m,P,71,2458.0
0,102,,,,,,,,,,,,,,,,8.0,76.0,l,P,67,2862.0
0,102,,,,,,,,,,,,,,,,8.0,77.0,g,b,25,3480.0
0,102,,,,,,,,,,,,,,,,8.0,78.0,Y,u,60,4335.0
0,102,,,,,,,,,,,,,,,,8.0,79.0,Y,b,28,3148.0
0,102,,,,,,,,,,,,,,,,8.0,80.0,d,y,88,4763.0
0,102,,,,,,,,,,,,,,,,9.0,1.0,U,C,74,2884.0
0,102,,,,,,,,,,,,,,,,9.0,2.0,Z,P,32,2997.0
0,102,,,,,,,,,,,,,,,,9.0,3.0,t,N,70,2956.0
0,102,,,,,,,,,,,,,,,,9.0,4.0,r,S,58,3794.0
0,102,,,,,,,,,,,,,,,,9.0,5.0,y,c,68,2693.0
0,102,,,,,,,,,,,,,,,,9.0,6.0,m,L,84,3246.0
0,102,,,,,,,,,,,,,,,,9.0,7.0,g,I,32,2817.0
0,102,,,,,,,,,,,,,,,,9.0,8.0,c,D,24,2332.0
0,102,,,,,,,,,,,,,,,,9.0,9.0,Z,S,32,2299.0
0,102,,,,,,,,,,,,,,,,9.0,10.0,u,d,24,2560.0
0,102,,,,,,,,,,,,,,,,9.0,11.0,a,P,75,2238.0
0,102,,,,,,,,,,,,,,,,9.0,12.0,U,u,68,3277.0
0,102,,,,,,,,,,,,,,,,9.0,13.0,Y,g,25,2338.0
0,102,,,,,,,,,,,,,,,,9.0,14.0,r,A,23,7033.0
0,102,,,,,,,,,,,,,,,,9.0,15.0,U,y,20,5763.0
0,102,,,,,,,,,,,,,,,,9.0,16.0,m,r,69,3133.0
0,102,,,,,,,,,,,,,,,,9.0,17.0,g,H,31,2125.0
0,102,,,,,,,,,,,,,,,,9.0,18.0,y,H,66,2647.0
0,102,,,,,,,,,,,,,,,,9.0,19.0,k,G,28,4851.0
0,102,,,,,,,,,,,,,,,,9.0,20.0,u,P,35,2472.0
0,102,,,,,,,,,,,,,,,,9.0,21.0,U,T,68,2993.0
0,102,,,,,,,,,,,,,,,,9.0,22.0,d,Y,69,2507.0
0,102,,,,,,,,,,,,,,,,9.0,23.0,v,y,30,2579.0
0,102,,,,,,,,,,,,,,,,9.0,24.0,a,Q,29,2482.0
0,102,,,,,,,,,,,,,,,,9.0,25.0,v,N,68,2565.0
0,102,,,,,,,,,,,,,,,,9.0,26.0,l,r,66,9225.0
0,102,,,,,,,,,,,,,,,,9.0,27.0,d,d,100,2434.0
0,102,,,,,,,,,,,,,,,,9.0,28.0,t,H,76,3074.0
0,102,,,,,,,,,,,,,,,,9.0,29.0,c,S,27,3674.0
0,102,,,,,,,,,,,,,,,,9.0,30.0,m,H,16,5236.0
0,102,,,,,,,,,,,,,,,,9.0,31.0,V,t,36,2592.0
0,102,,,,,,,,,,,,,,,,9.0,32.0,l,N,69,2768.0
0,102,,,,,,,,,,,,,,,,9.0,33.0,l,c,35,2658.0
0,102,,,,,,,,,,,,,,,,9.0,34.0,i,m,25,3150.0
0,102,,,,,,,,,,,,,,,,9.0,35.0,d,N,72,3350.0
0,102,,,,,,,,,,,,,,,,9.0,36.0,d,D,69,3178.0
0,102,,,,,,,,,,,,,,,,9.0,37.0,y,C,70,2191.0
0,102,,,,,,,,,,,,,,,,9.0,38.0,i,L,29,3467.0
0,102,,,,,,,,,,,,,,,,9.0,39.0,i,J,36,2859.0
0,102,,,,,,,,,,,,,,,,9.0,40.0,y,v,33,2687.0
0,102,,,,,,,,,,,,,,,,9.0,41.0,o,R,31,2216.0
0,102,,,,,,,,,,,,,,,,9.0,42.0,a,l,65,2745.0
0,102,,,,,,,,,,,,,,,,9.0,43.0,d,Z,89,3466.0
0,102,,,,,,,,,,,,,,,,9.0,44.0,r,K,31,3208.0
0,102,,,,,,,,,,,,,,,,9.0,45.0,Z,t,77,2548.0
0,102,,,,,,,,,,,,,,,,9.0,46.0,m,o,32,3097.0
0,102,,,,,,,,,,,,,,,,9.0,47.0,b,G,72,2465.0
0,102,,,,,,,,,,,,,,,,9.0,48.0,g,Y,69,2775.0
0,102,,,,,,,,,,,,,,,,9.0,49.0,k,r,88,3834.0
0,102,,,,,,,,,,,,,,,,9.0,50.0,U,G,91,3447.0
0,102,,,,,,,,,,,,,,,,9.0,51.0,h,k,74,1946.0
0,102,,,,,,,,,,,,,,,,9.0,52.0,Z,d,67,2545.0
0,102,,,,,,,,,,,,,,,,9.0,53.0,U,D,76,2819.0
0,102,,,,,,,,,,,,,,,,9.0,54.0,U,v,86,2528.0
0,102,,,,,,,,,,,,,,,,9.0,55.0,t,V,35,2373.0
0,102,,,,,,,,,,,,,,,,9.0,56.0,l,C,64,3281.0
0,102,,,,,,,,,,,,,,,,9.0,57.0,r,m,34,3099.0
0,102,,,,,,,,,,,,,,,,9.0,58.0,Z,N,68,2854.0
0,102,,,,,,,,,,,,,,,,9.0,59.0,Y,m,70,2398.0
0,102,,,,,,,,,,,,,,,,9.0,60.0,b,E,69,7072.0
0,102,,,,,,,,,,,,,,,,9.0,61.0,k,t,75,5924.0
0,102,,,,,,,,,,,,,,,,9.0,62.0,d,K,67,4987.0
0,102,,,,,,,,,,,,,,,,9.0,63.0,r,B,67,2162.0
0,102,,,,,,,,,,,,,,,,9.0,64.0,i,M,38,2281.0
0,102,,,,,,,,,,,,,,,,9.0,65.0,V,l,79,3503.0
0,102,,,,,,,,,,,,,,,,9.0,66.0,u,M,70,2861.0
0,102,,,,,,,,,,,,,,,,9.0,67.0,c,C,64,2964.0
0,102,,,,,,,,,,,,,,,,9.0,68.0,U,F,75,2509.0
0,102,,,,,,,,,,,,,,,,9.0,69.0,h,R,36,2604.0
0,102,,,,,,,,,,,,,,,,9.0,70.0,h,K,27,3168.0
0,102,,,,,,,,,,,,,,,,9.0,71.0,c,O,82,3966.0
0,102,,,,,,,,,,,,,,,,9.0,72.0,m,t,22,3138.0
0,102,,,,,,,,,,,,,,,,9.0,73.0,t,M,57,3052.0
0,102,,,,,,,,,,,,,,,,9.0,74.0,Y,O,71,3018.0
0,102,,,,,,,,,,,,,,,,9.0,75.0,v,a,32,3791.0
0,102,,,,,,,,,,,,,,,,9.0,76.0,o,S,29,2930.0
0,102,,,,,,,,,,,,,,,,9.0,77.0,l,u,82,3138.0
0,102,,,,,,,,,,,,,,,,9.0,78.0,V,c,28,2519.0
0,102,,,,,,,,,,,,,,,,9.0,79.0,i,v,29,2964.0
0,102,,,,,,,,,,,,,,,,9.0,80.0,m,m,100,3123.0
0,102,,,,,,,,,,,,,,,,10.0,1.0,b,F,66,2969.0
0,102,,,,,,,,,,,,,,,,10.0,2.0,i,D,75,2325.0
0,102,,,,,,,,,,,,,,,,10.0,3.0,i,Q,82,2313.0
0,102,,,,,,,,,,,,,,,,10.0,4.0,c,l,63,2362.0
0,102,,,,,,,,,,,,,,,,10.0,5.0,k,S,32,2278.0
0,102,,,,,,,,,,,,,,,,10.0,6.0,t,g,26,2325.0
0,102,,,,,,,,,,,,,,,,10.0,7.0,a,d,64,2317.0
0,102,,,,,,,,,,,,,,,,10.0,8.0,t,l,66,2468.0
0,102,,,,,,,,,,,,,,,,10.0,9.0,Z,B,75,4065.0
0,102,,,,,,,,,,,,,,,,10.0,10.0,t,k,90,3039.0
0,102,,,,,,,,,,,,,,,,10.0,11.0,i,d,72,2469.0
0,102,,,,,,,,,,,,,,,,10.0,12.0,c,K,34,3430.0
0,102,,,,,,,,,,,,,,,,10.0,13.0,a,S,35,5809.0
0,102,,,,,,,,,,,,,,,,10.0,14.0,i,E,78,2453.0
0,102,,,,,,,,,,,,,,,,10.0,15.0,t,c,85,2545.0
0,102,,,,,,,,,,,,,,,,10.0,16.0,l,v,73,2423.0
0,102,,,,,,,,,,,,,,,,10.0,17.0,o,k,30,2310.0
0,102,,,,,,,,,,,,,,,,10.0,18.0,r,l,27,2495.0
0,102,,,,,,,,,,,,,,,,10.0,19.0,y,T,30,2639.0
0,102,,,,,,,,,,,,,,,,10.0,20.0,b,l,69,2914.0
0,102,,,,,,,,,,,,,,,,10.0,21.0,o,b,73,2297.0
0,102,,,,,,,,,,,,,,,,10.0,22.0,o,M,85,2660.0
0,102,,,,,,,,,,,,,,,,10.0,23.0,h,m,68,2649.0
0,102,,,,,,,,,,,,,,,,10.0,24.0,k,k,100,3228.0
0,102,,,,,,,,,,,,,,,,10.0,25.0,k,o,61,2360.0
0,102,,,,,,,,,,,,,,,,10.0,26.0,a,T,29,2659.0
0,102,,,,,,,,,,,,,,,,10.0,27.0,h,G,29,2224.0
0,102,,,,,,,,,,,,,,,,10.0,28.0,k,T,70,2702.0
0,102,,,,,,,,,,,,,,,,10.0,29.0,b,v,36,3182.0
0,102,,,,,,,,,,,,,,,,10.0,30.0,m,I,29,2525.0
0,102,,,,,,,,,,,,,,,,10.0,31.0,l,G,74,2386.0
0,102,,,,,,,,,,,,,,,,10.0,32.0,m,E,66,3211.0
0,102,,,,,,,,,,,,,,,,10.0,33.0,V,g,80,3110.0
0,102,,,,,,,,,,,,,,,,10.0,34.0,k,K,62,4033.0
0,102,,,,,,,,,,,,,,,,10.0,35.0,k,V,68,3069.0
0,102,,,,,,,,,,,,,,,,10.0,36.0,V,F,88,4172.0
0,102,,,,,,,,,,,,,,,,10.0,37.0,b,H,37,2531.0
0,102,,,,,,,,,,,,,,,,10.0,38.0,t,b,28,2371.0
0,102,,,,,,,,,,,,,,,,10.0,39.0,U,k,79,3745.0
0,102,,,,,,,,,,,,,,,,10.0,40.0,u,t,83,2341.0
0,102,,,,,,,,,,,,,,,,10.0,41.0,c,H,32,2500.0
0,102,,,,,,,,,,,,,,,,10.0,42.0,r,k,81,2808.0
0,102,,,,,,,,,,,,,,,,10.0,43.0,k,c,71,2666.0
0,102,,,,,,,,,,,,,,,,10.0,44.0,k,A,31,2484.0
0,102,,,,,,,,,,,,,,,,10.0,45.0,k,R,72,2325.0
0,102,,,,,,,,,,,,,,,,10.0,46.0,y,I,35,3592.0
0,102,,,,,,,,,,,,,,,,10.0,47.0,Z,F,89,4013.0
0,102,,,,,,,,,,,,,,,,10.0,48.0,o,L,29,2619.0
0,102,,,,,,,,,,,,,,,,10.0,49.0,o,A,61,2515.0
0,102,,,,,,,,,,,,,,,,10.0,50.0,i,G,69,2273.0
0,102,,,,,,,,,,,,,,,,10.0,51.0,k,B,40,3216.0
0,102,,,,,,,,,,,,,,,,10.0,52.0,i,g,79,2340.0
0,102,,,,,,,,,,,,,,,,10.0,53.0,v,g,33,2626.0
0,102,,,,,,,,,,,,,,,,10.0,54.0,r,J,73,2971.0
0,102,,,,,,,,,,,,,,,,10.0,55.0,y,A,30,2612.0
0,102,,,,,,,,,,,,,,,,10.0,56.0,r,I,25,2742.0
0,102,,,,,,,,,,,,,,,,10.0,57.0,o,U,77,3221.0
0,102,,,,,,,,,,,,,,,,10.0,58.0,Y,D,67,2896.0
0,102,,,,,,,,,,,,,,,,10.0,59.0,Y,C,86,2618.0
0,102,,,,,,,,,,,,,,,,10.0,60.0,i,T,65,2757.0
0,102,,,,,,,,,,,,,,,,10.0,61.0,t,Q,79,3067.0
0,102,,,,,,,,,,,,,,,,10.0,62.0,r,Y,70,2339.0
0,102,,,,,,,,,,,,,,,,10.0,63.0,g,i,38,2463.0
0,102,,,,,,,,,,,,,,,,10.0,64.0,m,i,31,3136.0
0,102,,,,,,,,,,,,,,,,10.0,65.0,m,N,31,2374.0
0,102,,,,,,,,,,,,,,,,10.0,66.0,l,L,67,2430.0
0,102,,,,,,,,,,,,,,,,10.0,67.0,y,k,67,2405.0
0,102,,,,,,,,,,,,,,,,10.0,68.0,k,L,29,2975.0
0,102,,,,,,,,,,,,,,,,10.0,69.0,Y,S,84,2569.0
0,102,,,,,,,,,,,,,,,,10.0,70.0,b,b,100,3057.0
0,102,,,,,,,,,,,,,,,,10.0,71.0,y,J,28,2733.0
0,102,,,,,,,,,,,,,,,,10.0,72.0,g,v,30,3453.0
0,102,,,,,,,,,,,,,,,,10.0,73.0,a,t,31,3248.0
0,102,,,,,,,,,,,,,,,,10.0,74.0,t,h,25,2487.0
0,102,,,,,,,,,,,,,,,,10.0,75.0,c,k,72,2403.0
0,102,,,,,,,,,,,,,,,,10.0,76.0,i,U,31,2341.0
0,102,,,,,,,,,,,,,,,,10.0,77.0,g,R,65,2758.0
0,102,,,,,,,,,,,,,,,,10.0,78.0,Y,F,68,2669.0
0,102,,,,,,,,,,,,,,,,10.0,79.0,d,m,87,2508.0
0,102,,,,,,,,,,,,,,,,10.0,80.0,g,a,30,3448.0
